aX,aY,aZ,gX,gY,gZ
-0.321,-0.951,-0.002,3.845,3.235,4.272
-0.309,-0.961,0.013,1.709,3.479,4.822
-0.298,-0.971,0.006,-0.061,3.296,3.601
-0.280,-0.950,0.007,-2.136,5.005,2.747
-0.331,-0.958,0.022,2.625,5.981,3.235
-0.330,-0.960,0.035,1.709,5.798,0.366
-0.346,-0.978,0.031,1.221,1.648,2.136
-0.321,-0.977,0.014,1.282,1.343,0.854
-0.313,-0.967,0.016,-0.122,1.892,-0.183
-0.305,-0.936,0.014,-1.648,0.183,-0.122
-0.311,-0.958,0.011,-0.183,-0.366,2.319
-0.316,-0.963,0.010,-0.244,0.183,2.136
-0.310,-0.955,0.011,-0.427,1.953,2.319
-0.309,-0.978,0.024,0.671,3.052,2.502
-0.308,-0.973,0.026,0.549,2.136,2.258
-0.306,-0.964,0.024,1.465,1.343,1.831
-0.314,-0.965,0.007,2.136,1.099,1.404
-0.313,-0.962,0.005,2.319,1.221,1.099
-0.304,-0.962,0.015,2.991,1.892,2.319
-0.308,-0.967,0.016,1.770,1.404,1.099
-0.296,-0.936,-0.005,-1.770,-1.343,0.427
-0.313,-0.964,-0.017,0.000,1.160,2.258
-0.318,-0.987,0.042,0.122,6.287,3.479
-0.306,-0.962,0.034,-2.136,3.235,0.488
-0.308,-0.969,0.014,-1.343,1.221,0.488
-0.317,-0.946,0.002,-1.892,2.258,1.343
-0.277,-0.982,0.004,0.671,2.319,0.183
-0.285,-0.953,0.024,1.038,1.404,1.892
-0.326,-0.956,0.026,-0.122,0.793,1.282
-0.315,-0.958,0.023,-0.122,1.343,1.404
-0.344,-0.989,0.036,0.732,1.709,1.404
-0.315,-0.984,0.026,1.709,1.160,1.282
-0.338,-0.984,0.018,2.319,1.892,0.122
-0.266,-0.969,0.014,1.831,3.296,-0.183
-0.274,-0.945,0.025,1.343,3.296,-0.183
-0.267,-0.948,0.015,3.174,2.441,-0.427
-0.332,-0.967,0.027,2.869,3.479,-0.427
-0.360,-0.984,0.031,4.150,2.319,-0.549
-0.365,-0.976,0.020,3.845,2.258,-0.488
-0.303,-0.977,0.033,5.615,3.479,0.549
-0.260,-0.948,0.016,5.066,0.854,0.610
-0.260,-0.941,0.007,1.282,-0.122,0.122
-0.293,-0.937,0.009,-0.671,1.465,-1.099
-0.315,-0.955,0.011,1.831,1.831,-2.625
-0.311,-0.943,0.012,-1.404,-0.366,-3.174
-0.327,-0.954,-0.010,0.122,-1.099,-3.601
-0.321,-0.975,0.001,7.141,1.953,-2.869
-0.328,-0.978,0.009,15.503,4.944,-2.136
-0.324,-0.959,0.021,9.888,4.517,-1.160
-0.307,-0.966,0.001,3.723,3.723,-1.526
-0.276,-0.954,-0.013,4.944,2.075,-2.747
-0.280,-0.947,0.000,1.038,3.906,-2.197
-0.333,-0.944,-0.010,-0.305,0.610,-3.723
-0.400,-0.961,-0.014,5.371,2.502,-4.211
-0.387,-0.977,0.006,9.949,5.920,-2.808
-0.349,-0.982,-0.003,9.277,2.441,-0.977
-0.360,-0.969,-0.026,2.930,2.136,1.099
-0.300,-0.953,-0.017,2.869,6.226,-1.282
-0.297,-0.930,-0.006,1.587,7.141,-1.892
-0.299,-0.926,-0.032,3.906,-0.183,-0.427
-0.385,-0.958,-0.051,6.958,-1.404,-1.587
-0.411,-0.947,-0.013,5.249,6.836,-0.793
-0.384,-0.979,0.024,6.714,5.249,-1.099
-0.338,-0.965,-0.016,4.578,0.427,-2.319
-0.315,-0.967,-0.019,6.104,3.662,-3.296
-0.324,-0.935,-0.025,5.859,2.502,-3.235
-0.374,-0.921,-0.052,2.075,-1.770,1.099
-0.352,-0.956,-0.057,2.258,1.953,-5.310
-0.349,-0.965,-0.028,4.883,6.592,1.709
-0.335,-0.963,-0.028,2.563,5.798,0.000
-0.357,-0.928,-0.038,-0.916,3.662,0.732
-0.360,-0.949,-0.043,-1.160,2.808,0.854
-0.408,-0.940,-0.044,0.549,3.601,0.183
-0.409,-0.972,-0.006,3.235,5.432,-0.549
-0.376,-0.964,-0.021,1.221,2.747,-1.465
-0.379,-0.966,-0.030,1.221,2.319,-0.305
-0.315,-0.939,-0.035,4.578,2.441,0.549

-0.332,-0.939,-0.047,6.042,1.160,0.793
-0.344,-0.928,-0.053,3.662,1.465,0.183
-0.399,-0.945,-0.041,4.211,2.441,0.610
-0.398,-0.951,-0.031,6.653,3.906,1.526
-0.411,-0.966,-0.023,3.174,5.676,1.282
-0.398,-0.950,-0.042,2.136,3.296,-0.183
-0.358,-0.954,-0.051,1.892,4.395,1.038
-0.311,-0.939,-0.042,2.197,4.883,1.221
-0.323,-0.932,-0.048,3.357,2.747,0.122
-0.359,-0.934,-0.039,1.343,2.502,0.427
-0.412,-0.949,-0.035,0.427,0.977,-0.061
-0.405,-0.941,-0.033,1.648,2.319,0.610
-0.361,-0.942,-0.029,1.892,1.221,0.793
-0.378,-0.948,-0.049,-0.061,-0.610,0.061
-0.371,-0.931,-0.048,-2.625,1.587,0.427
-0.359,-0.946,-0.032,1.160,1.953,1.465
-0.372,-0.951,-0.038,4.150,0.610,2.014
-0.372,-0.944,-0.032,2.380,0.244,1.343
-0.364,-0.938,-0.023,-1.892,0.061,1.404
-0.367,-0.953,-0.038,-0.122,-2.075,1.221
-0.374,-0.956,-0.049,1.465,-0.732,1.099
-0.355,-0.945,-0.031,-0.366,0.977,0.671
-0.361,-0.942,-0.047,0.305,-1.160,-0.122
-0.371,-0.946,-0.075,2.075,-0.366,0.549
-0.369,-0.953,-0.052,2.625,3.174,0.427
-0.367,-0.956,-0.034,1.282,3.906,-0.549
-0.379,-0.934,-0.047,-3.296,2.319,-2.563
-0.363,-0.922,-0.026,-1.831,-2.380,-2.502
-0.395,-0.939,-0.103,6.042,2.991,2.197
-0.372,-0.942,-0.046,6.470,5.371,5.249
-0.336,-0.934,-0.029,3.479,4.456,3.906
-0.368,-0.949,-0.039,1.953,0.793,2.197
-0.365,-0.942,-0.051,2.686,1.160,1.404
-0.354,-0.951,-0.035,2.930,2.930,0.610
-0.375,-0.954,-0.037,3.418,2.625,1.953
-0.367,-0.962,-0.040,2.991,2.686,1.770
-0.368,-0.952,-0.052,1.648,2.197,1.282
-0.383,-0.953,-0.050,1.465,1.831,-2.075
-0.343,-0.930,-0.048,2.808,1.526,15.320
-0.331,-0.925,-0.056,3.723,0.244,5.432
-0.465,-0.956,-0.053,3.418,1.160,6.653
-0.357,-0.931,-0.049,0.793,1.099,-0.549
-0.379,-0.936,-0.056,0.366,0.061,0.366
-0.368,-0.938,-0.048,-0.244,1.160,0.305
-0.366,-0.933,-0.058,15.442,0.183,1.587
-0.373,-0.945,-0.062,2.197,0.671,3.052
-0.360,-0.952,-0.044,0.977,1.770,3.113
-0.358,-0.949,-0.047,0.916,0.977,1.343
-0.367,-0.939,-0.065,0.671,0.549,0.610
-0.370,-0.940,-0.069,0.793,1.770,1.892
-0.396,-0.972,-0.045,0.732,2.625,2.197
-0.395,-0.968,-0.040,-0.122,1.709,0.977
-0.338,-0.950,-0.058,-0.549,0.854,0.183
-0.319,-0.925,-0.060,-0.122,1.282,0.366
-0.314,-0.927,-0.061,0.122,1.221,0.732
-0.374,-0.930,-0.043,0.488,1.648,1.709
-0.371,-0.937,-0.041,0.977,-0.183,1.282
-0.419,-0.942,-0.051,0.244,-1.221,0.671
-0.373,-0.948,-0.054,-0.244,0.610,1.953
-0.382,-0.960,-0.050,0.488,1.526,2.869
-0.325,-0.954,-0.062,0.977,1.343,2.319
-0.332,-0.947,-0.064,-2.625,1.648,0.916
-0.321,-0.931,-0.051,-6.531,2.930,1.038
-0.391,-0.957,-0.040,-5.432,1.526,0.305
-0.364,-0.952,-0.030,-4.395,-0.122,-0.244
-0.370,-0.948,-0.047,-7.446,-1.221,-0.122
-0.372,-0.947,-0.054,-6.165,0.183,-0.183
-0.361,-0.939,-0.020,-6.042,3.052,0.122
-0.356,-0.939,0.004,-8.423,0.671,-0.488
-0.373,-0.927,-0.030,-9.827,-2.258,-0.793
-0.368,-0.957,-0.013,-4.639,0.916,0.122
-0.369,-0.940,-0.005,-2.258,1.892,0.610
-0.370,-0.950,-0.001,-1.038,1.892,0.610
-0.379,-0.941,-0.013,-3.845,0.732,0.000
-0.365,-0.929,-0.011,-3.540,-0.671,-0.183
-0.381,-0.932,-0.023,-3.845,-0.061,2.075
-0.371,-0.973,0.022,-0.122,5.554,3.113
-0.368,-0.952,0.030,-1.221,3.235,0.366
-0.379,-0.938,0.002,-4.333,-0.366,-0.366
-0.380,-0.931,-0.021,-4.211,1.282,0.732
-0.365,-0.937,0.009,0.610,3.662,1.526
-0.367,-0.936,0.019,2.075,3.296,1.953
-0.374,-0.906,-0.013,1.221,0.244,0.916
-0.363,-0.939,0.003,0.671,2.136,2.319
-0.361,-0.958,0.028,1.770,3.235,2.686
-0.374,-0.951,0.003,3.174,1.099,2.686
-0.365,-0.949,-0.003,1.709,1.282,2.502
-0.363,-0.939,-0.011,1.709,1.648,2.441
-0.365,-0.959,0.002,1.953,2.563,3.174
-0.355,-0.964,0.009,0.244,3.174,2.075
-0.358,-0.958,0.011,0.122,2.441,1.038
-0.365,-0.951,0.001,-0.854,2.319,-0.244
-0.370,-0.950,0.005,-2.686,2.747,-0.610
-0.361,-0.947,0.022,-4.089,2.197,-0.793
-0.367,-0.932,0.015,-5.005,0.427,-0.793
-0.370,-0.937,0.023,-4.944,2.075,-0.183
-0.358,-0.926,0.032,-6.287,0.793,-0.183
-0.375,-0.936,0.005,-2.747,-2.075,1.709
-0.372,-0.964,0.022,0.366,-0.122,2.625
-0.373,-0.962,0.038,1.709,1.831,2.197

-0.359,-0.958,0.044,4.700,1.343,0.549
-0.376,-0.873,-0.023,2.197,-1.770,0.305
-0.364,-0.944,0.009,-0.671,2.319,1.770
-0.376,-0.984,0.063,2.258,3.357,0.366
-0.390,-0.916,0.027,1.465,0.427,-3.662
-0.379,-0.896,0.004,-0.977,-0.183,-14.709
-0.388,-0.919,-0.009,0.122,0.854,-14.526
-0.443,-0.918,0.024,-2.869,4.944,-1.343
-0.422,-0.905,0.010,-2.380,3.662,4.272
-0.414,-0.918,0.044,0.305,1.648,4.517
-0.390,-0.948,0.031,-4.761,0.183,2.991
-0.379,-0.953,0.042,-2.502,2.502,0.244
-0.385,-0.947,0.043,-3.540,0.183,-1.038
-0.390,-0.911,0.018,-5.615,-3.662,0.549
-0.389,-0.946,0.008,-2.563,-1.953,0.366
-0.437,-0.912,0.029,-4.089,0.610,-0.122
-0.400,-0.903,0.048,-8.301,-1.953,-2.075
-0.392,-0.924,0.033,-7.324,-1.831,-1.831
-0.397,-0.955,0.034,-1.648,-0.610,0.854
-0.400,-0.965,0.060,3.235,2.136,2.197
-0.388,-0.954,0.079,4.150,1.648,0.061
-0.424,-0.913,0.050,7.568,-2.808,-3.418
-0.452,-0.874,0.001,11.841,-1.953,-5.066
-0.373,-0.924,0.029,13.611,1.709,-6.165
-0.400,-0.930,0.011,9.827,3.357,-3.174
-0.415,-0.924,0.000,8.118,1.160,-1.038
-0.404,-0.928,0.014,2.563,5.066,3.418
-0.389,-0.940,0.042,5.676,5.615,3.479
-0.390,-0.930,0.037,6.470,2.380,2.014
-0.357,-0.947,0.039,2.747,3.052,2.258
-0.350,-0.953,0.051,-0.488,5.798,2.441
-0.365,-0.951,0.028,-0.488,1.892,1.404
-0.437,-0.892,-0.011,-2.686,0.244,2.258
-0.427,-0.928,-0.005,1.526,3.784,3.235
-0.421,-0.922,0.031,4.883,6.653,1.709
-0.367,-0.943,0.039,8.179,3.906,0.244
-0.348,-0.927,0.028,7.935,3.662,2.380
-0.354,-0.993,0.037,9.521,3.967,2.502
-0.403,-0.967,0.013,10.681,2.319,-0.244
-0.350,-0.924,-0.010,6.592,3.662,-1.709
-0.438,-0.876,-0.018,10.559,3.296,-4.822
-0.419,-0.909,0.001,12.268,1.587,-5.066
-0.418,-0.901,0.001,5.615,0.854,-1.770
-0.364,-0.953,0.021,5.493,0.854,-2.808
-0.406,-0.983,0.009,4.944,0.183,-1.465
-0.463,-0.932,-0.011,1.709,0.549,-2.625
-0.458,-0.926,-0.014,-0.610,-0.549,-3.357
-0.476,-0.886,-0.022,-1.343,-0.122,-1.709
-0.406,-0.910,-0.011,0.244,-0.244,-0.793
-0.353,-0.937,-0.013,1.526,-0.183,2.258
-0.392,-0.907,-0.032,1.282,-1.282,5.737
-0.380,-0.908,-0.047,1.282,-0.916,4.639
-0.448,-0.876,-0.066,-0.061,1.038,3.540
-0.437,-0.909,-0.052,-1.770,4.089,3.235
-0.393,-0.970,-0.024,-1.709,7.996,3.784
-0.385,-0.980,0.007,0.244,10.132,5.920
-0.350,-0.980,0.020,2.930,8.362,12.024
-0.432,-0.941,0.002,3.845,3.967,14.771
-0.456,-0.906,0.009,-0.366,4.028,9.155
-0.430,-0.887,0.033,1.404,-2.014,0.061
-0.401,-0.914,-0.013,2.197,-4.578,-0.671
-0.415,-0.887,-0.022,-0.488,-0.488,3.723
-0.339,-0.957,0.014,0.061,0.122,4.028
-0.361,-0.956,-0.008,1.099,-0.977,4.639
-0.333,-0.955,-0.020,2.014,-0.305,5.310
-0.377,-0.937,-0.024,0.671,0.305,7.446
-0.425,-0.938,-0.001,0.916,0.977,8.911
-0.422,-0.923,-0.016,2.991,0.061,6.897
-0.414,-0.952,-0.012,3.296,0.671,6.958
-0.339,-0.940,-0.017,2.441,0.732,7.690
-0.321,-0.934,-0.011,1.160,1.770,8.911
-0.364,-0.943,-0.017,1.282,-0.610,10.498
-0.358,-0.935,-0.031,2.869,0.549,7.141
-0.353,-0.957,-0.022,2.319,2.136,3.601
-0.349,-0.971,-0.014,1.221,0.000,2.930
-0.306,-0.949,-0.043,0.061,-1.038,1.831
-0.340,-0.939,-0.053,0.061,0.854,1.343
-0.332,-0.949,-0.031,-0.366,4.700,-0.671
-0.401,-0.957,-0.010,-1.099,6.653,0.122
-0.389,-0.965,0.012,-0.610,5.920,0.122
-0.381,-0.953,0.012,0.305,3.113,-0.244
-0.337,-0.943,0.002,0.916,1.160,-0.427
-0.323,-0.932,-0.019,-0.244,0.305,-0.122
-0.374,-0.923,-0.010,0.427,1.465,1.831
-0.358,-0.944,0.002,0.732,0.061,2.258
-0.415,-0.952,-0.001,-1.526,-0.732,1.892
-0.363,-0.956,-0.004,-0.122,-0.366,1.770
-0.296,-0.930,-0.020,0.671,-0.183,2.502
-0.357,-0.947,-0.012,-0.732,0.549,1.099
-0.356,-0.951,-0.025,-2.136,0.854,1.953
-0.355,-0.949,-0.025,-0.916,1.282,2.319
-0.343,-0.942,-0.011,-0.183,2.808,3.174
-0.348,-0.935,-0.030,-0.427,2.136,3.845
-0.367,-0.933,-0.048,-1.465,3.296,3.479
-0.375,-0.961,-0.019,-5.310,9.094,5.249
-0.339,-0.963,0.040,-7.019,8.118,13.428
-0.339,-0.959,0.056,-1.160,1.892,11.597
-0.342,-0.963,0.023,-0.977,-2.258,5.005
-0.350,-0.966,-0.004,-8.179,0.793,0.183
-0.335,-0.945,0.021,-11.841,3.540,0.366

-0.328,-0.956,0.036,-7.935,1.404,0.549
-0.321,-0.958,0.056,-5.615,0.305,0.732
-0.290,-0.986,0.072,-3.113,-0.610,1.160
-0.369,-0.938,0.024,-4.944,-3.052,-1.099
-0.355,-0.933,0.024,-5.615,-1.526,-3.906
-0.337,-0.927,0.038,-2.441,1.404,-9.338
-0.355,-0.949,0.038,-1.038,1.831,-8.362
-0.357,-0.960,0.037,-2.441,0.977,-2.869
-0.349,-0.968,0.047,-2.136,1.404,0.977
-0.332,-0.982,0.058,2.991,0.427,2.625
-0.416,-0.935,0.019,2.747,-1.831,1.404
-0.381,-0.940,0.025,2.686,0.000,-1.038
-0.355,-0.958,0.063,0.854,2.380,-3.174
-0.366,-0.962,0.071,-0.183,-1.953,-0.122
-0.366,-0.932,0.050,-0.305,-3.052,-0.793
-0.320,-0.916,0.021,0.793,-2.502,-5.920
-0.370,-0.929,-0.002,-0.793,0.427,-6.348
-0.363,-0.928,0.028,-3.296,-0.427,1.160
-0.375,-0.938,0.055,-2.563,0.061,3.113
-0.367,-0.959,0.058,-2.869,2.991,3.845
-0.365,-0.954,0.051,-0.610,2.075,3.479
-0.375,-0.952,0.040,0.122,1.343,3.540
-0.362,-0.945,0.042,-2.380,1.709,2.502
-0.378,-0.926,0.018,-1.282,0.549,2.441
-0.401,-0.924,0.029,2.014,2.075,3.601
-0.412,-0.933,0.036,0.244,3.113,1.587
-0.360,-0.977,0.065,-1.160,3.540,-0.427
-0.324,-0.992,0.077,-1.465,3.296,-1.648
-0.325,-0.971,0.072,-1.038,1.831,-0.793
-0.356,-0.938,0.043,-1.160,3.113,-0.183
-0.400,-0.888,0.046,-0.427,3.357,0.427
-0.378,-0.901,0.057,1.160,0.732,2.441
-0.393,-0.902,0.060,1.221,2.258,3.601
-0.331,-0.966,0.083,-1.465,2.563,3.418
-0.326,-0.973,0.065,-0.366,2.197,3.479
-0.323,-0.991,0.069,1.404,1.892,3.784
-0.377,-0.930,0.050,0.854,2.563,3.235
-0.396,-0.913,0.065,1.709,1.282,2.747
-0.358,-0.972,0.047,-1.404,-2.258,0.977
-0.374,-0.955,0.063,-2.014,-0.793,0.732
-0.302,-0.971,0.082,-2.197,0.916,0.854
-0.336,-0.943,0.060,-0.488,-0.732,1.465
-0.329,-0.936,0.057,-1.282,-1.587,0.610
-0.392,-0.875,0.040,-3.235,-1.587,0.977
-0.413,-0.913,0.082,-3.052,0.000,4.761
-0.398,-0.910,0.075,0.610,-2.869,5.432
-0.339,-0.959,0.062,0.854,-3.113,4.883
-0.308,-0.996,0.060,-2.563,-0.122,3.357
-0.345,-0.956,0.058,-2.930,0.183,1.648
-0.357,-0.951,0.045,0.610,-2.197,1.343
-0.394,-0.905,0.023,0.793,-0.916,1.038
-0.349,-0.920,0.032,-2.686,0.549,1.404
-0.314,-0.992,0.061,-2.747,5.188,2.197
-0.281,-1.018,0.144,0.000,10.681,-1.343
-0.317,-0.946,0.079,-0.427,3.906,-6.836
-0.361,-0.906,0.060,-0.549,4.395,-4.028
-0.364,-0.935,0.089,0.061,4.639,-3.845
-0.364,-0.933,0.092,0.549,3.967,-4.456
-0.372,-0.937,0.093,1.404,3.418,-5.920
-0.375,-0.925,0.096,3.845,2.502,-6.592
-0.383,-0.935,0.099,5.005,1.526,-7.812
-0.400,-0.953,0.087,2.808,0.244,-5.920
-0.387,-0.927,0.083,0.061,0.244,-3.418
-0.368,-0.937,0.087,2.808,0.427,-3.845
-0.332,-0.979,0.090,6.348,0.244,-2.197
-0.403,-0.923,0.060,2.747,-1.404,0.732
-0.405,-0.915,0.038,2.136,-2.136,1.038
-0.396,-0.966,0.057,5.432,1.648,1.160
-0.382,-0.942,0.072,5.981,2.258,1.831
-0.396,-0.924,0.051,1.038,0.488,0.427
-0.389,-0.930,0.048,-1.404,1.709,0.671
-0.382,-0.940,0.070,1.709,2.869,0.366
-0.398,-0.925,0.057,1.770,2.197,-0.366
-0.394,-0.917,0.046,-0.671,3.662,0.244
-0.372,-0.928,0.072,0.244,5.859,0.916
-0.396,-0.949,0.068,1.831,1.221,-0.488
-0.409,-0.936,0.049,2.991,-1.343,-3.479
-0.423,-0.958,0.056,5.615,2.319,-7.690
-0.420,-0.948,0.072,7.080,6.165,-9.155
-0.408,-0.920,0.075,11.841,4.333,-5.737
-0.405,-0.908,0.078,13.062,2.258,-2.869
-0.416,-0.911,0.063,15.625,0.305,-1.099
-0.413,-0.906,0.055,13.611,1.404,0.366
-0.408,-0.911,0.039,13.428,2.686,0.916
-0.407,-0.904,0.020,13.611,3.906,3.540
-0.405,-0.921,0.023,18.738,3.052,4.578
-0.411,-0.934,0.026,17.212,0.732,3.174
-0.422,-0.919,-0.004,9.033,-2.502,0.549
-0.424,-0.921,-0.033,11.047,-0.183,0.122
-0.415,-0.928,-0.012,11.414,0.366,0.671
-0.420,-0.929,-0.015,8.667,-0.610,1.770
-0.425,-0.910,-0.030,2.686,1.160,1.160
-0.403,-0.918,-0.018,-1.282,2.808,-0.244
-0.406,-0.908,-0.038,-3.967,2.563,-0.549
-0.406,-0.909,-0.034,-0.916,4.089,1.099
-0.421,-0.955,0.001,-0.366,6.592,0.610
-0.417,-0.953,0.005,-2.197,6.165,-0.549
-0.413,-0.925,-0.008,-1.282,4.700,-0.671
-0.413,-0.919,-0.011,4.456,6.348,1.587
-0.407,-0.937,0.010,7.263,4.700,1.160

-0.421,-0.925,0.000,3.906,4.333,-0.488
-0.419,-0.923,0.002,-0.183,5.066,-0.854
-0.427,-0.918,-0.011,0.916,2.197,0.305
-0.445,-0.853,0.087,2.686,3.967,1.892
-0.437,-0.935,0.035,0.122,-0.854,-10.498
-0.437,-0.907,-0.051,-2.319,14.954,-2.075
-0.417,-0.907,-0.001,2.930,2.563,2.258
-0.421,-0.925,0.013,2.808,1.282,3.723
-0.422,-0.926,0.001,0.854,1.160,2.563
-0.439,-0.948,-0.006,2.014,0.366,2.075
-0.453,-0.960,-0.003,2.625,1.160,2.075
-0.393,-0.951,-0.006,3.967,1.526,0.916
-0.418,-0.925,-0.013,3.723,1.404,-0.061
-0.419,-0.908,-0.015,2.014,2.441,-0.916
-0.415,-0.914,-0.010,1.587,1.343,-1.831
-0.428,-0.927,-0.010,2.747,-0.183,-1.831
-0.425,-0.945,-0.013,2.686,0.732,-1.587
-0.429,-0.935,-0.007,0.671,2.563,-0.977
-0.375,-0.908,-0.011,1.404,2.136,0.122
-0.431,-0.909,-0.009,2.930,0.000,1.831
-0.432,-0.911,-0.021,1.038,1.343,1.038
-0.415,-0.912,-0.006,1.770,2.563,1.343
-0.421,-0.918,0.010,2.014,0.122,2.625
-0.466,-0.939,-0.003,0.183,-2.258,1.282
-0.405,-0.928,-0.045,-0.244,-1.587,0.671
-0.383,-0.911,-0.037,1.648,1.160,1.831
-0.429,-0.919,-0.021,2.136,1.953,2.625
-0.426,-0.922,-0.009,1.282,1.587,3.357
-0.418,-0.909,-0.001,1.160,-0.061,3.052
-0.432,-0.919,-0.037,1.587,-0.977,1.831
-0.426,-0.934,-0.041,0.305,3.662,2.441
-0.357,-0.934,-0.040,-0.061,5.127,0.305
-0.415,-0.916,-0.019,1.404,3.906,0.305
-0.409,-0.917,0.011,-2.747,3.052,-1.282
-0.459,-0.904,0.008,-1.343,0.549,0.183
-0.467,-0.923,-0.013,4.822,-2.441,2.136
-0.468,-0.893,-0.025,3.967,1.221,-0.061
-0.386,-0.917,-0.010,0.183,3.479,-3.967
-0.374,-0.937,-0.015,-0.305,2.014,0.916
-0.465,-0.922,-0.006,3.662,-0.061,4.761
-0.443,-0.894,-0.026,4.272,0.305,3.601
-0.475,-0.912,-0.037,4.456,1.465,4.395
-0.424,-0.940,-0.031,3.235,3.418,3.967
-0.436,-0.946,-0.007,-0.732,1.526,3.235
-0.362,-0.945,-0.001,-2.808,0.610,3.052
-0.405,-0.948,-0.004,-2.991,-1.221,0.061
-0.495,-0.935,-0.021,-4.517,-1.282,-0.977
-0.464,-0.925,-0.005,-4.578,0.977,-0.427
-0.471,-0.914,-0.019,-2.075,-0.061,1.404
-0.386,-0.878,-0.048,1.343,-0.488,3.906
-0.391,-0.902,-0.028,0.427,2.014,8.179
-0.338,-0.918,-0.009,-1.221,2.747,12.146
-0.409,-0.918,0.024,1.404,-2.319,11.414
-0.418,-0.928,-0.050,0.366,1.709,9.399
-0.451,-0.911,-0.034,0.183,7.690,16.418
-0.396,-0.936,0.001,3.113,3.662,19.226
-0.385,-0.954,-0.020,2.319,2.380,17.883
-0.569,-0.963,0.002,0.793,4.944,9.460
-0.420,-0.942,-0.017,2.747,4.272,-8.301
-0.377,-0.923,-0.040,4.333,3.845,5.798
-0.365,-0.928,-0.003,3.845,6.348,9.033
-0.389,-0.969,0.025,3.235,3.357,2.502
-0.374,-0.956,-0.004,3.174,0.732,6.226
-0.371,-0.954,-0.003,2.441,2.502,2.808
-0.361,-0.955,0.002,1.953,1.648,1.465
-0.395,-0.943,-0.017,0.427,-0.916,-0.061
-0.431,-0.939,-0.029,0.366,2.441,-0.610
-0.408,-0.956,0.001,0.854,2.686,0.244
-0.375,-0.955,-0.013,3.418,-0.244,0.488
-0.328,-0.939,-0.025,1.709,-0.122,0.366
-0.365,-0.942,-0.011,-0.916,0.488,-0.610
-0.369,-0.946,-0.011,0.244,-0.427,-0.366
-0.418,-0.932,-0.020,0.549,-1.160,-1.282
-0.422,-0.948,-0.017,0.305,-0.549,-2.625
-0.350,-0.949,-0.027,-0.671,1.160,-0.916
-0.345,-0.943,-0.008,2.319,1.160,1.282
-0.335,-0.926,-0.028,2.197,0.244,1.587
-0.372,-0.931,-0.015,0.793,0.854,1.404
-0.369,-0.935,-0.014,0.122,0.793,1.953
-0.427,-0.958,-0.028,0.183,1.221,3.479
-0.384,-0.960,-0.021,0.122,2.808,2.808
-0.312,-0.936,-0.019,0.488,2.319,2.686
-0.345,-0.927,-0.012,0.427,0.916,1.953
-0.352,-0.926,-0.035,1.221,0.000,0.732
-0.387,-0.944,-0.033,0.183,1.587,0.488
-0.366,-0.948,-0.010,-0.610,4.150,0.916
-0.372,-0.942,-0.007,0.671,2.808,1.709
-0.356,-0.940,-0.022,2.747,2.502,2.075
-0.320,-0.924,-0.018,1.099,3.540,2.014
-0.385,-0.942,-0.008,0.366,3.235,3.113
-0.445,-0.987,-0.006,-0.122,1.953,8.972
-0.395,-0.960,-0.009,1.343,1.404,10.620
-0.362,-0.950,-0.024,2.808,1.892,6.653
-0.349,-0.927,-0.012,2.380,3.540,4.150
-0.303,-0.925,-0.028,2.319,1.526,1.770
-0.333,-0.922,-0.045,0.549,2.136,2.136
-0.392,-0.957,-0.009,-0.244,4.456,2.197
-0.379,-0.954,0.007,-1.343,2.991,1.282
-0.402,-0.973,-0.012,0.061,0.671,1.099
-0.367,-0.961,-0.022,1.953,1.831,0.671

-0.354,-0.953,0.002,1.160,2.625,0.122
-0.310,-0.940,-0.011,0.488,1.099,-0.183
-0.361,-0.927,-0.029,0.549,2.380,0.000
-0.345,-0.921,-0.012,0.305,3.906,0.061
-0.405,-0.952,0.008,-0.061,2.319,0.732
-0.388,-0.969,-0.000,0.000,0.854,0.183
-0.352,-0.941,-0.012,-0.183,1.526,-0.854
-0.364,-0.956,-0.014,0.000,1.099,-1.648
-0.358,-0.952,-0.017,-0.305,0.366,-0.244
-0.393,-0.951,-0.012,-0.427,-0.061,-0.061
-0.408,-0.966,0.003,-1.160,1.343,-0.305
-0.422,-0.971,-0.009,0.977,0.366,-1.160
-0.360,-0.956,-0.021,2.319,2.258,-0.732
-0.332,-0.918,-0.008,2.258,3.540,0.305
-0.349,-0.915,-0.009,1.404,2.258,1.343
-0.364,-0.937,-0.023,0.305,2.380,-0.427
-0.415,-0.965,-0.004,0.122,4.211,0.183
-0.394,-0.971,0.001,1.587,3.357,0.916
-0.329,-0.951,-0.004,2.258,3.418,1.404
-0.330,-0.933,-0.001,1.709,2.930,0.061
-0.294,-0.905,0.104,0.061,0.671,-2.380
-0.412,-0.940,-0.031,1.587,-2.502,-9.216
-0.386,-0.932,-0.012,2.258,5.371,-3.845
-0.419,-0.943,0.000,3.906,2.502,0.732
-0.381,-0.951,-0.011,4.150,0.427,2.930
-0.381,-0.942,-0.020,2.258,2.502,1.587
-0.371,-0.948,-0.005,1.526,3.479,1.770
-0.379,-0.951,-0.001,0.854,1.892,1.099
-0.381,-0.938,-0.009,-1.038,2.258,0.549
-0.377,-0.940,-0.007,-1.831,2.441,0.732
-0.382,-0.940,-0.011,-2.930,2.869,-0.305
-0.380,-0.927,-0.006,-4.639,2.136,-0.427
-0.377,-0.929,-0.011,-5.249,-0.488,1.099
-0.392,-0.930,-0.009,-4.761,-0.488,1.770
-0.426,-0.935,0.001,-7.385,-0.305,1.831
-0.365,-0.955,0.009,-9.888,0.977,3.174
-0.324,-0.956,0.002,-8.911,2.258,1.892
-0.323,-0.939,0.015,-10.132,4.028,2.197
-0.357,-0.921,0.032,-10.864,3.967,4.639
-0.421,-0.946,0.050,-3.418,2.869,2.075
-0.420,-0.940,0.058,-5.371,0.671,1.221
-0.422,-0.934,0.045,-11.414,0.244,-0.183
-0.417,-0.966,0.065,-7.202,1.099,-0.610
-0.354,-0.941,0.043,-2.502,-0.916,-3.235
-0.338,-0.921,0.035,-2.075,0.671,-4.395
-0.333,-0.914,0.031,-7.568,2.441,-2.441
-0.375,-0.922,0.054,-7.446,4.761,-0.549
-0.426,-0.923,0.075,-4.333,2.014,2.014
-0.394,-0.932,0.074,-0.916,-1.343,5.005
-0.394,-0.962,0.076,0.061,-0.977,3.662
-0.341,-0.934,0.051,-7.568,1.770,2.502
-0.347,-0.926,0.079,-11.169,6.042,2.136
-0.339,-0.946,0.109,-5.737,1.465,1.282
-0.409,-0.934,0.104,-6.775,-2.136,1.099
-0.433,-0.953,0.082,-4.211,-3.235,-0.732
-0.433,-0.916,0.080,-4.822,-0.427,-3.235
-0.365,-0.894,0.090,-3.845,0.488,-12.207
-0.328,-0.904,0.090,-1.221,-0.305,-17.334
-0.346,-0.927,0.086,-5.127,-0.549,-10.498
-0.410,-0.937,0.081,-7.080,2.197,-2.014
-0.466,-0.944,0.096,-4.456,2.258,1.343
-0.453,-0.928,0.113,-0.183,3.540,3.235
-0.432,-0.941,0.119,1.709,2.625,4.150
-0.371,-0.941,0.105,1.282,1.465,3.479
-0.361,-0.923,0.103,0.427,1.160,1.282
-0.349,-0.908,0.083,1.282,0.977,1.343
-0.424,-0.906,0.093,2.319,1.709,0.549
-0.427,-0.907,0.103,-0.183,4.089,0.366
-0.414,-0.921,0.120,0.916,4.456,1.465
-0.408,-0.916,0.102,3.174,2.747,1.404
-0.411,-0.914,0.097,4.395,5.493,2.991
-0.389,-0.903,0.097,3.174,6.104,4.395
-0.394,-0.928,0.112,4.028,5.859,4.761
-0.409,-0.953,0.141,4.944,2.563,5.615
-0.409,-0.933,0.116,4.211,1.038,0.793
-0.392,-0.921,0.103,2.930,0.732,0.366
-0.354,-0.939,0.110,2.502,0.122,0.610
-0.358,-0.930,0.103,1.953,-0.671,0.610
-0.354,-0.950,0.094,2.380,0.916,-1.099
-0.407,-0.937,0.095,1.648,1.709,1.038
-0.401,-0.933,0.096,1.343,1.709,1.709
-0.402,-0.923,0.089,1.160,1.282,1.526
-0.397,-0.931,0.098,1.343,1.404,0.061
-0.385,-0.960,0.101,0.671,1.465,-0.305
-0.404,-0.940,0.086,0.305,0.977,-0.793
-0.448,-0.875,0.065,2.808,0.793,-0.488
-0.418,-0.890,0.082,3.418,2.319,-1.404
-0.401,-0.909,0.088,1.770,2.808,-2.258
-0.402,-0.931,0.091,0.671,2.869,-0.549
-0.403,-0.930,0.090,0.793,3.601,1.099
-0.416,-0.930,0.086,1.404,1.831,1.831
-0.433,-0.915,0.073,0.000,3.052,0.793
-0.436,-0.882,0.089,0.427,4.089,0.488
-0.393,-0.927,0.118,0.610,3.845,0.610
-0.406,-0.913,0.093,-1.526,1.465,-0.122
-0.405,-0.924,0.091,-2.930,1.831,-1.648
-0.398,-0.925,0.102,0.183,2.869,-0.305
-0.409,-0.920,0.106,4.211,2.441,0.366
-0.430,-0.893,0.100,1.770,1.221,1.221
-0.442,-0.896,0.089,0.977,0.061,-0.488

-0.379,-0.950,0.094,0.732,0.793,-2.625
-0.366,-0.972,0.104,2.319,4.150,-2.441
-0.375,-0.963,0.115,1.770,3.296,-1.587
-0.436,-0.896,0.087,0.977,1.282,-1.221
-0.468,-0.876,0.080,0.854,-0.183,-1.709
-0.414,-0.923,0.109,4.028,0.122,-4.333
-0.415,-0.897,0.112,4.517,1.038,-6.165
-0.375,-0.941,0.096,5.493,-0.244,-7.690
-0.379,-0.933,0.085,4.517,0.183,-7.507
-0.404,-0.911,0.076,5.798,1.587,-4.272
-0.490,-0.869,0.067,5.859,0.977,-1.953
-0.490,-0.888,0.064,1.587,2.563,-0.427
-0.470,-0.868,0.070,0.244,3.235,1.709
-0.420,-0.923,0.089,3.845,4.150,3.052
-0.430,-0.935,0.116,4.333,4.211,3.357
-0.404,-0.957,0.110,0.488,1.099,1.587
-0.453,-0.916,0.058,0.122,-0.183,0.671
-0.478,-0.866,0.047,0.305,3.052,0.366
-0.466,-0.863,0.063,1.221,3.113,1.221
-0.448,-0.892,0.090,1.892,2.563,1.587
-0.402,-0.950,0.108,1.343,1.343,1.282
-0.422,-0.936,0.081,2.747,0.427,0.916
-0.405,-0.928,0.074,3.845,2.319,1.404
-0.485,-0.883,0.057,1.831,3.662,1.648
-0.469,-0.865,0.076,-0.305,4.456,0.854
-0.412,-0.911,0.096,0.000,2.441,1.953
-0.398,-0.951,0.092,2.625,2.441,3.174
-0.393,-0.951,0.100,0.549,2.563,2.380
-0.443,-0.909,0.080,0.854,1.038,2.136
-0.465,-0.857,0.056,-0.977,0.366,1.770
-0.438,-0.910,0.077,-0.366,0.122,2.075
-0.458,-0.912,0.079,-1.099,0.488,0.732
-0.401,-0.960,0.100,-1.221,0.366,-0.488
-0.415,-0.940,0.077,0.000,0.977,-0.305
-0.433,-0.899,0.078,1.099,2.197,-0.610
-0.426,-0.892,0.078,0.488,1.709,-0.061
-0.435,-0.903,0.078,-0.183,2.136,0.549
-0.442,-0.899,0.072,-0.061,2.869,0.854
-0.438,-0.903,0.076,0.916,3.845,2.136
-0.437,-0.914,0.091,0.793,4.456,2.686
-0.434,-0.914,0.102,1.526,4.028,1.709
-0.440,-0.876,0.076,1.038,2.258,1.038
-0.434,-0.907,0.082,0.854,2.991,1.587
-0.440,-0.908,0.081,0.854,2.380,1.770
-0.440,-0.917,0.088,1.221,4.089,1.892
-0.431,-0.911,0.098,0.244,4.089,0.793
-0.432,-0.904,0.094,0.183,2.808,0.427
-0.436,-0.902,0.091,0.183,1.831,0.549
-0.434,-0.914,0.100,0.305,1.282,1.587
-0.440,-0.906,0.089,1.099,0.061,1.221
-0.441,-0.911,0.081,1.038,0.488,1.404
-0.443,-0.918,0.077,0.183,2.014,0.977
-0.431,-0.913,0.085,1.770,2.747,3.540
-0.416,-0.900,0.090,4.578,2.319,4.456
-0.424,-0.902,0.086,3.784,0.549,3.113
-0.431,-0.918,0.080,-0.671,1.648,0.854
-0.426,-0.904,0.066,-0.366,3.113,0.427
-0.427,-0.898,0.074,3.601,3.906,3.479
-0.436,-0.921,0.078,2.258,4.761,2.563
-0.437,-0.930,0.087,-1.282,6.042,0.488
-0.431,-0.943,0.102,-0.854,6.348,1.892
-0.425,-0.923,0.104,1.465,3.601,4.333
-0.424,-0.908,0.107,1.221,1.465,5.249
-0.425,-0.916,0.111,-0.488,-0.549,2.258
-0.427,-0.902,0.082,-0.305,-1.526,-0.610
-0.421,-0.901,0.082,2.136,-0.427,-0.122
-0.418,-0.898,0.089,1.526,0.671,1.038
-0.426,-0.910,0.081,0.916,0.610,1.099
-0.433,-0.919,0.083,1.099,1.770,0.610
-0.422,-0.915,0.093,0.427,2.808,1.038
-0.433,-0.917,0.087,3.235,0.366,1.587
-0.431,-0.930,0.091,0.671,1.709,0.854
-0.381,-0.959,0.103,0.122,3.296,0.183
-0.424,-0.911,0.088,3.540,2.136,0.916
-0.429,-0.904,0.079,3.235,1.953,0.427
-0.416,-0.899,0.090,2.136,2.502,1.221
-0.420,-0.908,0.080,3.967,1.343,2.075
-0.431,-0.927,0.092,3.052,2.502,1.160
-0.396,-0.950,0.108,1.526,1.465,0.061
-0.401,-0.957,0.087,2.625,0.366,-0.183
-0.466,-0.893,0.043,3.601,1.709,-0.793
-0.427,-0.897,0.080,2.258,3.662,-0.061
-0.419,-0.899,0.084,2.197,1.587,0.366
-0.428,-0.906,0.076,1.892,0.366,1.099
-0.437,-0.911,0.069,0.000,1.343,0.977
-0.435,-0.899,0.078,-0.732,3.601,1.404
-0.405,-0.909,0.147,1.404,2.319,2.502
-0.488,-0.882,0.101,1.221,-6.165,1.709
-0.444,-0.919,0.061,1.221,-3.540,-4.700
-0.442,-0.912,0.015,1.221,2.991,-9.705
-0.415,-0.901,0.071,2.197,6.470,1.831
-0.437,-0.917,0.085,4.517,2.014,2.930
-0.448,-0.936,0.077,5.432,2.197,3.784
-0.535,-0.831,0.083,7.141,3.601,2.502
-0.497,-0.914,0.110,5.676,1.282,0.488
-0.506,-0.888,0.094,2.991,0.305,-0.183
-0.386,-0.946,0.069,1.343,0.305,-2.136
-0.429,-0.908,0.042,0.610,0.549,-1.587
-0.477,-0.862,0.039,1.099,1.770,1.282
-0.481,-0.879,0.059,2.625,2.686,1.953

-0.465,-0.893,0.083,2.991,2.991,0.916
-0.414,-0.957,0.092,3.540,0.732,-0.549
-0.401,-0.924,0.065,0.977,0.793,-0.610
-0.398,-0.934,0.055,2.930,1.221,0.549
-0.448,-0.886,0.050,4.517,2.380,1.587
-0.473,-0.917,0.066,5.371,2.319,2.930
-0.515,-0.891,0.046,5.249,0.488,1.892
-0.395,-0.918,0.053,5.127,0.427,1.526
-0.431,-0.902,0.057,4.761,1.709,1.953
-0.398,-0.947,0.076,5.005,0.793,1.404
-0.436,-0.938,0.040,3.906,-0.610,0.671
-0.480,-0.870,0.008,1.892,-0.549,0.183
-0.468,-0.879,0.035,0.305,3.540,1.343
-0.468,-0.875,0.052,-0.977,2.686,5.676
-0.395,-0.927,0.061,-0.122,0.854,6.531
-0.401,-0.919,0.053,-1.465,1.587,7.202
-0.364,-0.942,0.057,0.244,2.625,5.127
-0.439,-0.917,0.025,2.441,3.296,5.127
-0.480,-0.897,0.019,4.456,3.845,4.883
-0.493,-0.901,0.022,4.639,3.723,7.812
-0.424,-0.922,0.059,2.502,4.028,6.287
-0.367,-0.968,0.069,2.991,3.296,1.343
-0.401,-0.937,0.051,-0.183,4.028,-0.854
-0.456,-0.875,0.045,-3.540,3.906,-1.587
-0.452,-0.872,0.034,-1.282,1.953,-0.061
-0.465,-0.870,0.042,1.831,1.648,1.160
-0.393,-0.925,0.083,1.038,3.784,0.977
-0.361,-0.946,0.078,0.427,0.793,1.160
-0.407,-0.930,0.049,3.784,-0.122,1.465
-0.430,-0.927,0.047,3.540,2.197,0.793
-0.421,-0.928,0.051,2.136,2.502,0.854
-0.426,-0.935,0.042,2.380,1.465,1.648
-0.406,-0.924,0.089,2.380,0.366,0.366
-0.422,-0.941,0.054,5.127,-3.723,-1.770
-0.443,-0.917,-0.022,-0.183,0.671,-2.075
-0.396,-0.889,0.020,-1.038,7.996,-1.343
-0.403,-0.907,0.068,1.343,3.845,0.305
-0.427,-0.912,0.061,0.854,1.648,1.526
-0.449,-0.924,0.048,1.099,1.648,-0.549
-0.435,-0.915,0.058,0.916,3.113,-0.366
-0.431,-0.919,0.055,2.441,2.136,-1.404
-0.432,-0.912,0.038,2.747,2.014,-2.136
-0.427,-0.911,0.034,3.357,2.747,-0.183
-0.434,-0.916,0.041,2.136,3.357,1.465
-0.424,-0.923,0.051,0.916,3.479,1.404
-0.432,-0.926,0.039,2.258,2.380,1.099
-0.425,-0.924,0.043,3.174,3.174,0.122
-0.428,-0.906,0.040,0.916,2.869,-0.488
-0.434,-0.916,0.033,2.197,0.916,0.732
-0.435,-0.926,0.045,3.113,2.319,0.366
-0.420,-0.907,0.048,2.380,2.991,0.366
-0.423,-0.914,0.035,2.808,1.648,0.793
-0.442,-0.919,0.028,2.075,2.563,-0.305
-0.437,-0.918,0.051,1.587,3.967,-1.099
-0.427,-0.913,0.047,0.854,2.625,-0.671
-0.440,-0.911,0.034,1.892,1.465,-0.549
-0.438,-0.907,0.029,2.319,2.808,-0.732
-0.385,-0.900,0.036,2.380,2.258,-0.610
-0.444,-0.896,0.044,1.160,1.343,0.671
-0.439,-0.898,0.034,1.709,1.282,0.732
-0.484,-0.899,0.036,2.563,2.258,0.732
-0.455,-0.910,0.032,3.113,2.869,1.465
-0.395,-0.916,0.030,2.991,3.723,2.075
-0.400,-0.922,0.044,2.625,2.747,2.136
-0.415,-0.901,0.096,1.099,0.916,2.014
-0.483,-0.901,0.067,0.244,-2.869,-0.427
-0.483,-0.882,-0.028,1.221,0.549,-0.793
-0.476,-0.906,0.029,1.343,4.089,3.357
-0.413,-0.925,0.054,1.404,2.869,3.906
-0.437,-0.931,0.046,1.343,0.793,2.625
-0.435,-0.930,0.039,0.000,1.892,0.977
-0.436,-0.918,0.032,0.977,0.793,0.732
-0.442,-0.918,0.029,2.075,-0.305,1.282
-0.438,-0.921,0.026,-0.488,0.854,-0.244
-0.429,-0.904,0.028,-0.793,1.404,-0.488
-0.432,-0.899,0.026,-1.221,1.831,0.671
-0.434,-0.913,0.036,-1.404,1.221,0.610
-0.490,-0.908,0.029,-3.662,-0.244,0.732
-0.452,-0.931,0.032,-4.211,1.404,0.671
-0.400,-0.919,0.034,-4.333,3.540,0.977
-0.432,-0.920,0.045,-2.380,2.563,0.122
-0.442,-0.909,0.049,-2.380,1.953,-0.732
-0.432,-0.918,0.073,-2.136,3.845,-0.305
-0.436,-0.907,0.068,-1.465,0.488,-0.488
-0.454,-0.888,0.047,-1.770,-1.160,0.061
-0.416,-0.867,0.055,-2.930,-1.526,0.366
-0.490,-0.899,0.066,-5.371,-2.075,-0.854
-0.455,-0.885,0.058,-5.493,-2.319,-0.854
-0.444,-0.899,0.055,1.160,-0.732,-1.038
-0.451,-0.919,0.063,-14.587,-0.305,0.732
-0.437,-0.903,0.043,-3.906,-2.014,1.953
-0.442,-0.911,0.047,-3.479,-0.122,2.869
-0.422,-0.891,0.049,-3.662,2.502,3.662
-0.414,-0.899,0.036,-2.136,0.122,2.075
-0.485,-0.897,0.056,-4.089,0.916,2.502
-0.444,-0.903,0.067,-6.104,2.380,4.395
-0.440,-0.928,0.080,-3.235,0.183,2.380
-0.445,-0.916,0.070,-1.160,-1.282,0.427
-0.431,-0.893,0.073,0.244,1.831,2.197
-0.375,-0.926,0.102,2.991,4.028,2.319

-0.437,-0.897,0.082,0.793,0.977,-1.648
-0.493,-0.879,0.080,-2.075,2.502,-4.578
-0.484,-0.899,0.070,0.122,1.343,2.502
-0.465,-0.917,0.078,2.563,2.502,3.662
-0.404,-0.873,0.050,-0.732,1.770,2.991
-0.402,-0.906,0.062,15.198,3.418,3.662
-0.410,-0.939,0.088,4.517,4.089,3.601
-0.466,-0.914,0.089,4.333,2.441,1.648
-0.484,-0.915,0.076,3.967,1.709,0.427
-0.352,-0.952,0.043,3.723,2.197,0.061
-0.359,-0.948,0.054,2.686,2.075,0.061
-0.467,-0.819,0.060,2.136,2.380,0.366
-0.520,-0.841,0.104,1.709,1.770,0.610
-0.444,-0.973,0.099,1.709,0.671,1.160
-0.421,-0.966,0.102,1.343,2.014,1.709
-0.357,-0.982,0.059,0.732,2.075,1.526
-0.392,-0.886,0.038,1.343,1.587,1.648
-0.371,-0.919,0.042,2.441,2.258,1.160
-0.483,-0.810,0.056,1.648,2.136,0.549
-0.520,-0.884,0.087,2.136,-0.122,0.427
-0.426,-1.007,0.069,1.465,1.343,0.916
-0.430,-0.999,0.091,1.770,3.296,0.366
-0.353,-0.964,0.048,2.136,3.296,0.427
-0.433,-0.826,0.030,2.014,2.930,1.892
-0.412,-0.846,0.033,1.282,2.991,2.930
-0.512,-0.820,0.079,0.793,3.967,3.174
-0.478,-0.946,0.104,1.282,4.333,2.808
-0.376,-0.923,0.084,1.099,2.625,2.563
-0.386,-1.021,0.078,2.441,4.272,2.502
-0.361,-0.927,0.066,2.930,4.578,0.916
-0.470,-0.802,0.070,2.014,2.014,0.732
-0.507,-0.862,0.085,0.793,2.319,0.977
-0.511,-0.863,0.084,6.409,2.502,0.793
-0.436,-0.999,0.089,8.850,2.258,0.732
-0.362,-0.988,0.039,6.653,0.854,0.610
-0.465,-0.869,0.041,3.906,1.587,0.671
-0.450,-0.875,0.041,4.761,1.099,0.305
-0.461,-0.868,0.053,3.723,2.075,-0.427
-0.408,-0.939,0.078,2.625,5.310,-0.916
-0.437,-0.933,0.063,2.563,2.502,-1.648
-0.427,-0.958,0.047,3.052,0.793,-1.038
-0.457,-0.914,0.036,6.531,1.953,0.244
-0.465,-0.874,0.051,10.620,1.770,0.427
-0.433,-0.901,0.066,7.690,-0.244,-0.610
-0.414,-0.865,0.077,2.197,-0.366,-0.183
-0.462,-0.930,0.039,2.258,-4.517,0.793
-0.451,-0.942,-0.034,1.709,1.282,-0.916
-0.402,-0.940,0.060,2.441,10.864,1.892
-0.484,-0.898,0.041,1.709,2.258,2.380
-0.505,-0.880,0.001,4.211,-2.380,1.282
-0.424,-0.930,0.029,5.127,3.174,1.465
-0.404,-0.934,0.073,6.592,4.944,0.977
-0.391,-0.946,0.037,5.615,3.174,0.488
-0.454,-0.899,0.007,8.118,3.967,2.319
-0.504,-0.863,0.016,5.005,3.662,3.906
-0.442,-0.898,0.046,0.916,1.953,2.563
-0.445,-0.906,0.036,0.671,0.793,0.977
-0.410,-0.952,0.031,1.831,1.770,-0.061
-0.406,-0.995,0.017,3.784,2.808,-0.122
-0.419,-0.886,0.004,3.113,2.197,-0.610
-0.480,-0.823,0.028,0.610,1.526,-1.099
-0.476,-0.813,0.009,-1.038,1.953,-1.526
-0.465,-0.897,0.040,1.526,1.282,-0.122
-0.419,-0.970,0.033,1.953,1.709,0.854
-0.458,-0.918,0.024,0.366,2.502,-0.305
-0.447,-0.921,0.019,2.075,1.709,-0.916
-0.484,-0.851,0.007,2.686,0.427,0.061
-0.444,-0.885,0.025,2.441,0.488,0.916
-0.442,-0.911,0.015,1.587,0.183,0.977
-0.480,-0.920,0.014,1.587,1.526,0.549
-0.413,-0.921,0.009,1.892,4.333,1.343
-0.411,-0.929,0.024,2.808,4.395,1.953
-0.403,-0.909,0.017,4.517,2.991,3.723
-0.472,-0.899,0.022,1.648,1.343,4.089
-0.451,-0.914,0.017,0.854,1.953,1.465
-0.439,-0.916,0.023,2.563,2.014,1.038
-0.443,-0.897,0.018,1.892,2.136,2.258
-0.440,-0.902,0.025,0.305,2.991,1.282
-0.439,-0.902,0.023,-0.488,1.892,0.977
-0.447,-0.896,0.010,0.793,1.770,2.319
-0.480,-0.906,0.029,1.526,2.563,3.235
-0.495,-0.926,0.033,1.648,1.892,3.601
-0.411,-0.919,0.014,0.793,1.587,3.601
-0.387,-0.916,0.011,2.380,1.892,2.869
-0.359,-0.930,0.030,1.343,2.197,3.113
-0.402,-0.965,0.028,0.977,1.160,2.258
-0.453,-0.922,0.003,0.122,1.770,1.465
-0.442,-0.917,0.007,1.587,1.892,0.244
-0.453,-0.825,0.093,1.526,1.099,-0.305
-0.475,-0.907,0.036,-0.793,-5.859,-3.906
-0.463,-0.879,-0.038,-2.625,3.540,-4.700
-0.360,-0.928,0.047,2.258,5.554,-0.488
-0.419,-0.936,0.025,5.066,-0.122,2.808
-0.499,-0.875,-0.015,3.906,0.793,0.610
-0.480,-0.876,0.001,1.465,5.066,0.793
-0.467,-0.882,0.024,3.662,3.479,2.991
-0.414,-0.938,0.027,6.653,2.258,2.747
-0.407,-0.954,0.015,3.967,3.540,2.747
-0.458,-0.942,0.029,2.563,4.089,1.221
-0.457,-0.911,-0.009,3.235,1.892,1.709

-0.486,-0.867,-0.011,3.662,2.625,1.404
-0.436,-0.911,0.031,0.916,4.150,1.160
-0.481,-0.910,0.040,-1.953,1.160,0.916
-0.363,-0.953,0.026,-0.732,-0.977,2.258
-0.426,-0.936,0.003,1.221,-0.610,1.587
-0.501,-0.857,-0.008,-0.732,1.648,0.671
-0.475,-0.847,0.004,-1.221,1.099,4.211
-0.492,-0.848,0.001,-1.770,-0.244,3.601
-0.396,-0.923,0.010,-1.465,0.427,4.639
-0.380,-0.930,0.006,-0.916,2.014,4.089
-0.384,-0.949,0.025,-1.221,3.235,3.418
-0.435,-0.933,0.035,-0.122,1.831,4.150
-0.498,-0.937,0.031,-0.366,0.549,2.014
-0.477,-0.921,0.033,-2.197,0.366,-1.526
-0.453,-0.915,0.032,-5.310,-0.549,-2.197
-0.394,-0.910,0.011,-5.371,-1.221,-1.709
-0.504,-0.803,0.010,-6.470,0.732,-0.793
-0.499,-0.794,0.021,-9.277,2.319,0.000
-0.462,-0.876,0.054,-13.733,2.625,0.610
-0.480,-0.919,0.054,-6.287,2.808,2.136
-0.442,-0.941,0.042,-1.770,2.502,1.953
-0.442,-0.914,0.048,-1.953,3.357,1.831
-0.373,-0.898,0.050,-4.272,2.563,0.916
-0.413,-0.937,0.059,1.038,2.075,2.747
-0.475,-0.846,0.041,0.000,1.526,2.625
-0.523,-0.865,0.073,-5.066,1.648,1.587
-0.404,-0.995,0.093,-3.662,2.014,1.770
-0.472,-0.917,0.071,-1.404,0.427,2.136
-0.404,-0.914,0.059,0.732,0.977,3.601
-0.378,-0.919,0.062,4.150,2.014,3.357
-0.389,-0.918,0.059,2.502,0.916,2.075
-0.445,-0.909,0.051,1.221,1.038,2.014
-0.455,-0.941,0.049,3.113,2.319,2.014
-0.447,-0.966,0.058,4.089,2.441,0.916
-0.452,-0.871,0.007,-1.343,1.160,0.793
-0.370,-0.905,0.033,-1.831,2.258,0.977
-0.409,-0.944,0.086,4.028,3.601,2.930
-0.406,-0.905,0.061,2.441,1.099,-2.502
-0.431,-0.907,0.049,2.441,1.587,-5.310
-0.430,-0.907,0.041,4.272,1.831,-3.052
-0.429,-0.906,0.048,4.761,2.869,0.000
-0.432,-0.912,0.055,3.540,3.540,1.343
-0.468,-0.909,0.052,1.160,2.808,1.587
-0.441,-0.915,0.051,-0.122,2.686,0.732
-0.441,-0.913,0.055,-1.404,3.601,-0.366
-0.443,-0.914,0.052,-1.099,3.296,-0.854
-0.444,-0.915,0.051,-1.526,3.357,-0.366
-0.443,-0.913,0.056,-0.793,2.380,0.244
-0.444,-0.908,0.060,-0.183,2.441,-0.732
-0.433,-0.901,0.070,0.427,3.174,-1.221
-0.444,-0.910,0.068,2.930,0.488,-0.061
-0.449,-0.902,0.091,2.136,0.793,0.549
-0.450,-0.913,0.066,1.343,1.282,0.732
-0.447,-0.922,0.066,1.099,1.709,0.244
-0.454,-0.914,0.064,1.587,2.319,0.305
-0.445,-0.900,0.053,1.343,0.305,3.113
-0.443,-0.876,0.038,-0.183,-0.305,3.479
-0.441,-0.910,0.052,0.000,2.136,2.808
-0.440,-0.930,0.071,-0.732,2.808,2.991
-0.436,-0.897,0.050,-0.916,0.244,5.554
-0.427,-0.899,0.055,1.648,1.770,4.517
-0.433,-0.908,0.055,0.488,1.892,2.869
-0.433,-0.934,0.070,2.075,2.197,2.380
-0.440,-0.926,0.063,1.526,1.099,1.587
-0.444,-0.909,0.046,1.831,0.183,0.549
-0.437,-0.912,0.050,0.366,1.343,0.183
-0.437,-0.914,0.065,1.343,1.953,0.305
-0.443,-0.913,0.064,1.770,1.221,0.488
-0.437,-0.901,0.055,1.770,1.648,0.305
-0.438,-0.900,0.062,3.418,2.563,0.488
-0.449,-0.885,0.031,4.028,0.610,0.305
-0.439,-0.918,0.045,2.502,2.808,-0.244
-0.430,-0.925,0.079,4.578,2.686,-0.061
-0.443,-0.908,0.077,5.127,0.549,-0.061
-0.440,-0.898,0.049,0.305,0.793,-2.625
-0.432,-0.889,0.041,-1.282,0.549,-1.587
-0.444,-0.909,0.046,0.427,0.732,2.563
-0.443,-0.915,0.057,0.610,1.709,3.052
-0.442,-0.913,0.052,-1.770,1.587,2.441
-0.450,-0.921,0.042,-2.625,0.793,2.258
-0.443,-0.921,0.046,-1.648,0.977,1.526
-0.434,-0.918,0.054,-0.793,2.502,1.648
-0.444,-0.928,0.062,-2.747,2.075,1.953
-0.437,-0.919,0.061,-5.554,1.587,3.174
-0.436,-0.851,0.012,-7.996,-1.709,3.723
-0.418,-0.893,0.051,-2.075,1.648,7.263
-0.465,-0.954,0.116,4.028,3.174,6.226
-0.451,-0.946,0.111,2.502,1.099,-1.587
-0.430,-0.882,0.043,1.343,-0.854,-7.202
-0.423,-0.888,0.050,4.944,0.793,-5.005
-0.470,-0.853,0.060,4.333,2.136,-4.822
-0.389,-0.910,0.079,2.930,2.075,-4.150
-0.423,-0.961,0.063,2.502,1.343,2.625
-0.409,-0.957,0.066,1.892,2.869,2.869
-0.461,-0.910,0.052,3.967,3.479,2.808
-0.483,-0.890,0.055,4.333,3.052,2.014
-0.440,-0.932,0.071,3.296,0.000,-0.671
-0.442,-0.899,0.055,-1.404,0.244,-1.404
-0.402,-0.943,0.062,-2.930,0.488,-2.380
-0.429,-0.904,0.037,-3.845,0.732,-2.380

-0.431,-0.923,0.038,-1.648,1.221,0.244
-0.494,-0.872,0.035,-0.854,2.747,2.014
-0.492,-0.880,0.066,0.183,3.296,3.052
-0.490,-0.871,0.076,0.916,2.747,3.174
-0.423,-0.929,0.096,2.991,2.319,1.587
-0.408,-0.947,0.075,3.174,2.563,0.122
-0.461,-0.895,0.038,2.747,3.357,-0.305
-0.416,-0.955,0.119,12.695,-9.277,-0.427
-0.551,-0.921,0.009,6.104,-9.888,1.160
-0.480,-0.908,-0.052,-0.671,2.808,-0.183
-0.402,-0.849,0.074,-0.793,12.329,4.272
-0.381,-0.957,0.114,0.977,1.526,4.395
-0.433,-0.944,0.049,0.854,0.366,3.296
-0.479,-0.967,0.052,1.038,5.066,-0.305
-0.463,-0.859,0.046,-0.183,2.991,0.183
-0.552,-0.844,0.062,1.953,1.099,0.793
-0.456,-0.929,0.058,3.906,2.563,0.671
-0.437,-0.909,0.073,2.930,4.761,0.977
-0.402,-0.949,0.072,2.258,2.502,0.854
-0.441,-0.906,0.041,1.282,2.075,1.465
-0.439,-0.925,0.045,1.343,2.930,1.526
-0.500,-0.871,0.039,2.075,2.930,1.526
-0.472,-0.896,0.068,0.977,2.686,1.465
-0.413,-0.954,0.085,1.160,0.610,0.793
-0.412,-0.937,0.071,0.916,-0.122,-0.305
-0.405,-0.927,0.058,0.549,0.366,-0.793
-0.466,-0.908,0.034,1.282,0.366,-0.549
-0.451,-0.850,0.039,1.343,2.014,1.282
-0.457,-0.855,0.040,2.625,2.319,1.892
-0.440,-0.909,0.065,1.953,1.221,2.563
-0.408,-0.950,0.061,2.258,0.427,2.319
-0.448,-0.923,0.033,3.296,1.831,2.502
-0.436,-0.933,0.047,2.686,2.869,1.770
-0.491,-0.873,0.039,1.709,3.052,1.770
-0.466,-0.891,0.061,1.648,3.235,1.953
-0.407,-0.943,0.070,2.441,1.709,1.526
-0.413,-0.934,0.061,0.549,0.732,0.122
-0.416,-0.941,0.041,0.671,0.977,0.610
-0.474,-0.883,0.021,2.258,2.319,1.648
-0.498,-0.885,0.017,-1.343,-1.038,-0.183
-0.503,-0.858,-0.013,-0.244,2.441,-0.122
-0.435,-0.902,0.054,1.648,6.653,1.892
-0.460,-0.909,0.077,0.183,3.906,1.160
-0.404,-0.953,0.072,0.183,2.319,0.549
-0.442,-0.936,0.047,1.404,2.441,0.122
-0.495,-0.877,0.039,1.404,2.319,-0.305
-0.488,-0.868,0.042,0.671,1.892,-0.488
-0.474,-0.861,0.050,0.916,1.099,-0.793
-0.445,-0.895,0.056,1.343,0.732,0.122
-0.451,-0.896,0.053,1.709,0.488,0.732
-0.449,-0.896,0.048,1.953,0.549,1.404
-0.446,-0.893,0.042,2.747,0.366,2.014
-0.450,-0.903,0.046,2.075,1.160,3.052
-0.397,-0.912,0.034,2.563,0.854,3.662
-0.443,-0.909,0.029,1.953,1.282,3.357
-0.446,-0.914,0.033,-1.221,2.808,2.014
-0.443,-0.919,0.045,-0.732,3.540,1.648
-0.449,-0.919,0.053,-1.648,2.380,3.296
-0.459,-0.906,0.054,-2.441,0.061,2.686
-0.415,-0.910,0.045,-2.441,-1.160,1.282
-0.395,-0.902,0.042,-4.211,0.549,-0.183
-0.426,-0.896,0.057,-4.333,2.441,-0.122
-0.446,-0.907,0.066,-2.930,2.991,0.000
-0.450,-0.908,0.066,-1.526,1.099,-0.122
-0.454,-0.910,0.047,-2.747,0.427,0.183
-0.480,-0.850,0.050,-2.197,2.319,0.854
-0.408,-0.885,0.073,-1.587,1.831,2.502
-0.426,-0.883,0.069,-2.197,2.014,1.221
-0.395,-0.916,0.079,-5.005,1.587,0.244
-0.419,-0.939,0.070,-3.784,2.014,0.305
-0.422,-0.951,0.078,-1.526,2.075,0.000
-0.479,-0.881,0.059,-3.540,0.977,-0.366
-0.490,-0.845,0.067,-7.446,1.404,-0.061
-0.484,-0.881,0.073,-3.418,0.793,-0.732
-0.395,-0.897,0.089,-1.709,0.244,-1.221
-0.408,-0.891,0.091,-0.427,1.404,-0.183
-0.415,-0.924,0.103,-0.122,1.770,2.014
-0.494,-0.911,0.098,-0.549,2.625,1.770
-0.487,-0.874,0.083,0.183,1.404,1.587
-0.503,-0.885,0.084,1.343,0.183,2.258
-0.430,-0.895,0.087,2.319,-0.549,2.869
-0.383,-0.919,0.097,1.038,-0.610,2.686
-0.399,-0.927,0.100,1.038,-0.610,1.953
-0.438,-0.915,0.091,0.061,-0.549,1.709
-0.503,-0.888,0.073,2.441,-0.244,2.747
-0.450,-0.889,0.084,0.977,1.770,2.258
-0.459,-0.901,0.073,-0.427,1.282,1.953
-0.415,-0.863,0.029,-2.991,-1.892,1.404
-0.394,-0.917,0.058,-0.366,1.160,3.174
-0.455,-0.922,0.099,5.554,6.836,3.967
-0.488,-0.903,0.109,3.113,3.967,0.061
-0.466,-0.900,0.086,-0.366,2.319,-1.099
-0.479,-0.904,0.092,-2.686,2.014,0.061
-0.419,-0.894,0.082,0.061,1.831,1.099
-0.403,-0.906,0.084,0.854,2.258,2.380
-0.457,-0.895,0.099,-0.427,2.930,1.038
-0.450,-0.898,0.092,-1.770,2.563,0.916
-0.495,-0.890,0.091,-1.282,1.770,0.916
-0.451,-0.914,0.096,-0.732,2.747,1.709
-0.387,-0.908,0.090,-0.671,1.831,1.709

-0.409,-0.912,0.072,0.610,1.038,1.343
-0.427,-0.916,0.080,1.038,4.089,1.465
-0.484,-0.909,0.106,3.235,4.333,0.916
-0.483,-0.905,0.098,3.113,-0.549,0.183
-0.492,-0.908,0.092,1.465,0.916,-0.122
-0.416,-0.916,0.100,-1.221,4.883,-1.526
-0.395,-0.906,0.098,1.709,4.456,-1.953
-0.397,-0.898,0.082,3.784,2.747,-1.221
-0.453,-0.905,0.077,3.540,0.549,-0.732
-0.463,-0.896,0.074,1.831,3.479,-0.488
-0.448,-0.906,0.099,4.822,3.967,-0.671
-0.459,-0.885,0.079,5.615,0.061,-1.038
-0.456,-0.890,0.076,3.906,1.282,0.671
-0.452,-0.900,0.091,4.333,3.235,0.854
-0.458,-0.890,0.083,3.418,2.686,-0.305
-0.459,-0.894,0.069,4.639,1.648,-0.183
-0.463,-0.912,0.084,8.667,4.089,1.770
-0.451,-0.907,0.089,8.057,4.883,1.465
-0.445,-0.906,0.083,9.949,0.916,-0.549
-0.434,-0.899,0.055,6.958,2.075,2.197
-0.467,-0.906,0.071,7.446,2.136,1.221
-0.437,-0.889,0.065,6.775,0.977,0.427
-0.422,-0.896,0.057,7.812,1.770,3.418
-0.519,-0.908,0.046,6.653,0.610,1.160
-0.449,-0.888,0.044,2.502,4.150,-0.061
-0.435,-0.909,0.089,2.808,6.287,2.380
-0.461,-0.917,0.041,1.343,-1.770,-0.305
-0.490,-0.875,-0.015,-0.122,-2.991,0.183
-0.456,-0.896,0.028,-2.380,5.859,2.319
-0.435,-0.903,0.067,-0.916,8.301,3.052
-0.427,-0.897,0.060,0.977,5.676,4.700
-0.455,-0.920,0.044,-0.916,4.028,1.465
-0.451,-0.911,0.050,-2.075,6.348,0.549
-0.437,-0.922,0.067,0.916,6.409,1.892
-0.463,-0.913,0.066,4.028,5.493,0.061
-0.442,-0.895,0.060,1.038,6.042,-0.183
-0.435,-0.897,0.054,3.601,3.235,2.136
-0.522,-0.903,0.057,4.028,4.761,2.686
-0.500,-0.874,0.066,2.075,7.080,0.732
-0.440,-0.909,0.081,4.578,5.798,2.808
-0.440,-0.915,0.075,6.409,4.089,3.174
-0.473,-0.908,0.067,4.761,2.197,1.160
-0.455,-0.917,0.060,0.488,1.709,0.610
-0.464,-0.926,0.058,0.488,0.610,-0.061
-0.459,-0.911,0.062,1.892,0.671,-0.977
-0.409,-0.902,0.037,1.526,0.732,-0.244
-0.468,-0.893,0.088,8.545,0.549,2.441
-0.422,-0.948,0.068,2.930,-1.160,0.366
-0.456,-0.911,0.013,-1.404,0.977,-0.122
-0.446,-0.907,0.038,0.610,4.333,2.258
-0.455,-0.906,0.053,2.625,1.160,2.014
-0.459,-0.908,0.051,0.610,2.991,1.221
-0.443,-0.906,0.059,0.610,2.991,0.916
-0.451,-0.904,0.052,3.174,1.465,1.587
-0.458,-0.906,0.049,0.854,2.686,1.160
-0.446,-0.903,0.054,-0.610,3.540,0.427
-0.447,-0.902,0.050,-0.122,2.502,0.977
-0.462,-0.904,0.043,3.052,1.465,2.075
-0.454,-0.907,0.058,3.113,2.747,2.258
-0.438,-0.911,0.071,2.686,2.380,2.075
-0.483,-0.926,0.057,0.732,-0.610,0.732
-0.413,-0.934,0.034,-0.610,0.244,0.122
-0.400,-0.905,0.037,0.061,0.916,0.244
-0.410,-0.913,0.036,0.427,-0.122,0.000
-0.467,-0.885,0.051,-0.427,1.343,-0.305
-0.497,-0.899,0.059,-0.305,2.014,0.183
-0.443,-0.921,0.049,0.305,0.793,-0.366
-0.396,-0.895,0.029,-1.099,-0.122,0.671
-0.400,-0.921,0.044,-3.235,1.282,2.747
-0.418,-0.891,0.041,-2.502,1.587,2.991
-0.489,-0.900,0.048,1.282,2.014,3.052
-0.491,-0.932,0.052,-3.113,4.028,1.648
-0.499,-0.914,0.068,-7.019,4.700,7.141
-0.428,-0.937,0.072,-7.019,4.517,4.822
-0.457,-0.916,0.093,-8.240,4.639,-1.221
-0.443,-0.892,0.094,-9.277,5.127,-2.747
-0.454,-0.900,0.089,-4.517,1.404,-0.610
-0.465,-0.888,0.088,-8.606,1.465,-1.770
-0.440,-0.871,0.103,-13.184,2.319,-1.526
-0.445,-0.879,0.108,-14.221,-0.671,-0.488
-0.456,-0.885,0.091,-13.245,-1.526,0.061
-0.506,-0.941,0.123,-9.705,1.526,-2.869
-0.473,-0.932,0.119,-14.160,0.000,3.113
-0.472,-0.910,0.129,-16.174,0.977,0.305
-0.440,-0.881,0.145,-15.320,0.793,-0.549
-0.394,-0.850,0.138,-15.808,-0.854,-0.183
-0.365,-0.858,0.170,-15.991,2.686,2.319
-0.479,-0.874,0.175,-10.376,2.991,5.127
-0.428,-0.914,0.176,-5.676,-1.221,3.235
-0.461,-0.886,0.152,-9.033,-1.038,3.296
-0.443,-0.868,0.153,-4.761,-0.549,5.798
-0.436,-0.909,0.168,4.028,1.831,10.315
-0.450,-0.845,0.106,-5.371,0.061,7.812
-0.423,-0.881,0.156,-6.226,6.470,7.812
-0.434,-0.925,0.212,0.122,8.545,8.728
-0.431,-0.912,0.193,4.150,2.625,6.165
-0.427,-0.905,0.172,0.977,1.526,3.784
-0.425,-0.887,0.170,-2.136,5.127,3.357
-0.412,-0.876,0.169,-5.859,5.676,5.127
-0.403,-0.886,0.182,-1.953,4.944,5.859

-0.421,-0.910,0.180,2.258,1.282,6.714
-0.433,-0.916,0.160,0.854,2.014,5.798
-0.418,-0.907,0.168,-1.465,6.042,4.150
-0.407,-0.914,0.194,-3.174,5.615,3.052
-0.418,-0.917,0.199,-2.014,3.479,0.427
-0.411,-0.912,0.216,-1.953,4.395,-1.465
-0.413,-0.899,0.210,-2.502,2.197,-1.953
-0.421,-0.889,0.185,-2.075,-2.136,-1.221
-0.420,-0.891,0.193,-1.587,-1.038,-0.244
-0.420,-0.898,0.193,-2.441,0.183,-0.549
-0.426,-0.846,0.200,-3.357,0.854,-0.793
-0.415,-0.878,0.210,-2.319,1.160,0.427
-0.423,-0.879,0.209,-1.953,1.831,1.404
-0.440,-0.824,0.160,-7.874,-2.991,0.305
-0.435,-0.925,0.209,2.686,5.249,4.883
-0.423,-0.930,0.244,5.615,5.859,2.075
-0.404,-0.872,0.220,1.160,2.747,0.122
-0.405,-0.880,0.205,3.540,-0.366,2.686
-0.409,-0.884,0.190,3.296,-0.732,3.540
-0.380,-0.935,0.198,3.113,1.282,4.761
-0.384,-0.955,0.192,5.554,3.662,5.188
-0.382,-0.964,0.197,5.432,4.150,4.089
-0.431,-0.898,0.179,2.625,3.906,3.113
-0.448,-0.862,0.192,1.648,3.296,1.465
-0.448,-0.851,0.180,2.930,1.770,-0.366
-0.412,-0.900,0.193,2.747,2.563,-0.671
-0.366,-0.951,0.210,1.892,4.028,-1.587
-0.396,-0.910,0.207,-0.061,4.333,-1.160
-0.401,-0.921,0.190,3.601,1.099,-0.122
-0.452,-0.847,0.186,5.676,2.075,1.160
-0.441,-0.866,0.214,4.822,2.441,1.343
-0.440,-0.862,0.205,3.113,0.183,-1.282
-0.395,-0.930,0.200,3.052,-1.526,-1.465
-0.386,-0.950,0.197,2.686,-0.854,-1.160
-0.377,-0.941,0.193,2.197,-1.709,-1.221
-0.424,-0.874,0.158,3.418,-2.502,-1.709
-0.417,-0.900,0.179,7.446,0.793,-0.122
-0.425,-0.918,0.176,10.681,-0.122,0.305
-0.415,-0.919,0.180,9.888,0.244,-0.916
-0.413,-0.892,0.173,6.714,0.488,-2.930
-0.413,-0.908,0.160,12.695,-0.488,-2.136
-0.458,-0.930,0.142,9.277,0.549,-3.418
-0.428,-0.886,0.134,2.747,1.770,-5.371
-0.407,-0.890,0.132,13.367,0.916,-1.526
-0.440,-0.925,0.135,26.306,-0.427,0.061
-0.449,-0.919,0.123,20.996,0.183,-2.991
-0.483,-0.821,0.090,10.254,1.038,-2.136
-0.444,-0.891,0.134,15.564,2.563,-0.305
-0.406,-0.954,0.143,15.930,4.089,-0.854
-0.404,-0.913,0.143,10.559,3.235,0.000
-0.401,-0.945,0.113,6.226,0.244,0.000
-0.460,-0.884,0.074,11.108,-2.075,-0.366
-0.498,-0.836,0.070,11.108,-2.991,0.244
-0.466,-0.844,0.062,5.920,2.380,0.610
-0.431,-0.903,0.083,10.376,4.272,1.465
-0.463,-0.915,0.067,14.343,0.793,-0.671
-0.451,-0.890,0.057,3.479,3.357,-1.770
-0.532,-0.883,0.062,3.479,4.333,0.977
-0.455,-0.920,0.077,7.996,3.235,1.770
-0.443,-0.904,0.082,2.441,1.709,0.305
-0.437,-0.864,0.052,-6.226,1.831,0.183
-0.434,-0.895,0.073,-4.456,4.517,1.343
-0.452,-0.876,0.081,-0.122,7.141,4.333
-0.488,-0.902,0.075,3.235,1.526,4.211
-0.492,-0.875,0.065,-0.488,0.488,2.380
-0.428,-0.953,0.066,2.625,0.671,0.122
-0.398,-0.999,0.060,5.981,2.075,-0.916
-0.448,-0.927,0.034,6.592,2.563,-2.380
-0.458,-0.935,0.051,1.465,4.272,-3.418
-0.496,-0.854,0.056,-0.793,5.005,-4.822
-0.425,-0.837,0.133,-2.136,4.761,-5.615
-0.464,-0.890,0.122,4.822,-9.399,-2.686
-0.452,-0.949,0.006,1.160,-1.953,-2.625
-0.601,-0.886,0.024,-0.061,12.878,3.113
-0.393,-0.943,0.085,0.793,6.104,0.244
-0.478,-0.860,0.059,3.845,-0.427,1.404
-0.543,-0.748,0.063,2.991,2.930,3.174
-0.449,-0.911,0.103,2.991,4.822,2.930
-0.460,-0.914,0.085,6.287,1.465,2.686
-0.465,-0.916,0.066,6.348,1.526,2.258
-0.455,-0.903,0.058,4.822,2.686,0.916
-0.446,-0.886,0.064,5.615,3.052,2.380
-0.455,-0.896,0.057,3.113,1.160,2.869
-0.462,-0.902,0.047,1.465,1.160,2.441
-0.451,-0.906,0.052,2.869,0.977,2.869
-0.449,-0.906,0.059,3.723,1.465,2.930
-0.454,-0.908,0.069,2.991,1.404,2.625
-0.411,-0.912,0.066,1.709,0.671,2.319
-0.478,-0.876,0.056,0.916,-2.075,1.038
-0.497,-0.903,0.042,3.174,-2.502,1.526
-0.468,-0.897,0.046,4.456,-0.183,2.258
-0.433,-0.961,0.036,4.761,0.366,2.075
-0.403,-0.937,0.029,2.136,2.502,0.732
-0.457,-0.886,0.040,1.099,3.113,-0.244
-0.497,-0.884,0.057,0.488,1.526,-0.488
-0.496,-0.871,0.043,0.122,1.282,-0.183
-0.471,-0.908,0.045,2.686,1.648,1.038
-0.399,-0.929,0.039,2.563,1.709,1.709
-0.407,-0.895,0.035,2.136,1.526,1.587
-0.407,-0.903,0.028,1.038,0.000,2.747

-0.489,-0.891,0.034,1.343,0.244,1.953
-0.472,-0.920,0.046,0.854,3.540,1.526
-0.389,-0.979,0.054,0.793,3.357,0.610
-0.436,-0.901,0.035,-1.038,2.808,1.343
-0.432,-0.910,0.029,-0.366,2.869,2.991
-0.484,-0.842,0.163,5.493,-0.610,2.625
-0.536,-0.897,0.027,2.197,-7.263,-0.854
-0.479,-0.843,-0.001,-1.099,9.216,-0.671
-0.372,-0.938,0.062,3.296,8.789,2.197
-0.392,-0.951,0.070,6.348,3.723,6.836
-0.401,-0.956,0.057,4.028,1.160,5.859
-0.470,-0.888,0.036,1.343,2.380,2.930
-0.485,-0.852,0.037,1.770,1.099,2.075
-0.431,-0.925,0.035,3.174,0.366,0.977
-0.440,-0.916,0.031,5.066,3.784,1.526
-0.398,-0.980,0.050,4.211,4.944,1.404
-0.439,-0.917,0.021,1.709,2.319,1.648
-0.491,-0.855,0.011,2.319,1.038,2.319
-0.455,-0.847,0.019,3.845,1.831,1.709
-0.479,-0.887,0.034,3.113,1.709,1.892
-0.366,-0.969,0.036,2.502,2.686,1.099
-0.431,-0.915,0.034,1.709,3.540,0.122
-0.445,-0.912,0.040,0.549,2.197,0.427
-0.451,-0.917,0.028,1.831,0.549,0.183
-0.443,-0.917,0.028,2.258,1.831,0.305
-0.438,-0.913,0.033,3.174,1.587,0.488
-0.437,-0.893,0.024,2.686,0.549,1.709
-0.439,-0.901,0.013,3.784,0.061,2.258
-0.441,-0.899,0.012,3.174,2.625,2.869
-0.432,-0.913,0.025,3.479,5.615,3.967
-0.478,-0.870,0.028,3.723,4.150,3.906
-0.554,-0.792,0.026,1.221,2.136,2.869
-0.485,-0.921,0.053,-0.122,2.441,2.869
-0.363,-1.055,0.036,-1.770,3.784,1.282
-0.415,-0.918,0.011,-1.282,2.930,0.427
-0.426,-0.924,0.005,1.282,1.099,1.343
-0.480,-0.835,0.004,0.854,2.014,2.502
-0.450,-0.876,0.037,1.404,3.662,4.028
-0.442,-0.930,0.035,2.625,2.075,2.930
-0.439,-0.924,0.028,1.587,2.869,1.221
-0.424,-0.919,0.049,2.075,2.319,1.892
-0.436,-0.930,0.052,1.953,-5.676,0.977
-0.461,-0.892,-0.024,-1.770,-0.916,-0.671
-0.427,-0.911,0.021,1.526,4.517,-1.038
-0.429,-0.895,0.019,3.845,1.587,2.319
-0.440,-0.903,0.019,1.465,3.662,3.174
-0.419,-0.895,0.025,0.610,4.333,3.357
-0.421,-0.914,0.036,2.991,2.686,5.554
-0.444,-0.943,0.032,3.662,1.099,5.737
-0.376,-0.999,0.021,4.211,0.793,4.578
-0.454,-0.922,-0.010,2.563,1.648,4.089
-0.432,-0.863,-0.010,3.418,3.113,2.563
-0.405,-0.925,0.023,6.409,2.563,5.310
-0.407,-0.976,0.019,1.221,2.319,2.625
-0.411,-0.972,0.040,0.366,3.113,1.770
-0.407,-0.986,0.012,2.869,1.892,0.671
-0.420,-0.886,-0.006,2.563,0.854,0.854
-0.428,-0.824,0.005,0.671,1.282,0.183
-0.444,-0.852,0.008,0.000,3.113,0.916
-0.386,-0.937,0.026,1.526,2.625,1.648
-0.365,-0.968,0.007,3.357,3.479,2.380
-0.410,-0.950,-0.004,4.272,4.211,2.075
-0.432,-0.858,0.009,2.502,3.906,1.831
-0.431,-0.896,0.013,3.235,3.906,1.099
-0.432,-0.892,0.033,3.784,3.113,-0.122
-0.405,-0.978,0.031,2.808,1.221,-1.099
-0.398,-0.953,0.006,2.136,0.610,-1.892
-0.420,-0.926,0.016,-0.549,-0.305,-2.747
-0.406,-0.944,0.016,-0.549,-1.465,-3.479
-0.376,-0.920,-0.002,0.671,-1.404,-3.662
-0.439,-0.914,-0.001,2.930,-0.305,-4.028
-0.438,-0.892,0.005,1.465,-0.366,-1.831
-0.486,-0.887,0.015,0.305,0.427,0.916
-0.427,-0.912,0.002,1.892,0.610,1.831
-0.429,-0.907,-0.017,2.686,0.977,1.526
-0.406,-0.926,-0.013,0.549,5.371,2.380
-0.374,-0.922,0.009,0.732,5.432,2.197
-0.461,-0.858,0.079,1.038,1.587,2.197
-0.518,-0.932,0.042,-0.366,-4.517,-5.737
-0.476,-0.889,-0.042,-5.737,1.038,-2.563
-0.417,-0.899,0.008,-0.854,6.165,1.221
-0.433,-0.906,0.025,2.930,1.587,2.136
-0.439,-0.911,0.026,-0.244,0.854,1.648
-0.419,-0.916,0.035,-2.991,0.793,2.319
-0.421,-0.919,0.016,0.305,-2.136,2.747
-0.428,-0.911,0.008,-1.221,-1.282,4.028
-0.423,-0.911,0.007,-1.221,-0.793,4.333
-0.435,-0.921,-0.014,-2.991,-1.648,4.944
-0.516,-0.908,0.003,-2.441,1.038,7.690
-0.425,-0.939,0.031,-5.798,0.977,7.324
-0.369,-0.957,0.004,-7.080,-1.404,5.432
-0.358,-0.964,-0.029,-8.423,-1.648,2.747
-0.352,-1.001,-0.005,-10.376,0.732,6.653
-0.464,-0.869,0.023,-11.902,2.502,3.784
-0.465,-0.870,0.056,-17.273,1.404,-2.441
-0.376,-0.886,0.075,-21.667,3.174,-4.089
-0.371,-0.909,0.104,-13.245,2.686,0.488
-0.391,-0.979,0.091,-7.690,-1.221,-6.165
-0.400,-0.929,0.046,-6.592,-2.747,-7.019
-0.369,-0.943,0.061,-6.409,-2.686,-5.066

-0.490,-0.789,0.054,-6.287,-4.333,6.165
-0.447,-0.913,0.105,-4.333,-1.160,4.578
-0.373,-0.967,0.120,-14.832,1.099,1.465
-0.376,-0.966,0.106,-7.812,-3.113,3.418
-0.433,-0.978,0.092,-2.686,-2.625,3.723
-0.448,-0.991,0.100,-8.362,1.709,1.465
-0.436,-0.838,0.091,-9.033,-3.113,1.099
-0.513,-0.816,0.105,-9.033,-4.333,1.709
-0.424,-0.920,0.095,-6.348,-1.038,2.380
-0.429,-0.921,0.116,-1.770,1.221,3.296
-0.442,-0.940,0.107,-4.822,2.441,1.343
-0.443,-0.923,0.094,-10.254,7.385,-1.770
-0.395,-0.911,0.122,-7.996,9.583,-0.916
-0.343,-0.903,0.177,-0.061,4.883,2.380
-0.437,-0.880,0.160,2.502,-2.319,1.709
-0.491,-0.873,0.109,-1.770,-2.197,-0.671
-0.414,-0.889,0.107,-2.869,3.479,1.648
-0.431,-0.911,0.154,0.061,4.028,2.747
-0.388,-0.923,0.134,-0.366,1.038,2.380
-0.417,-0.925,0.129,0.488,2.808,2.136
-0.521,-0.855,0.173,-0.061,5.737,0.488
-0.408,-0.974,0.176,-1.587,2.319,0.488
-0.427,-0.943,0.160,-2.380,-0.305,0.610
-0.325,-1.000,0.139,-1.221,1.221,1.343
-0.386,-0.846,0.124,-0.366,2.014,1.221
-0.512,-0.791,0.148,2.197,0.671,2.441
-0.505,-0.776,0.135,-0.916,0.671,3.357
-0.490,-0.905,0.169,2.502,0.854,4.211
-0.366,-1.021,0.154,3.052,1.465,3.540
-0.337,-0.935,0.109,2.869,1.709,3.357
-0.428,-0.905,0.130,3.174,2.625,4.517
-0.403,-0.908,0.134,1.221,4.272,2.136
-0.454,-0.891,0.149,0.488,5.066,1.831
-0.449,-0.913,0.152,0.000,3.723,1.953
-0.394,-0.936,0.136,1.404,3.113,1.526
-0.379,-0.915,0.141,-0.305,4.517,0.549
-0.426,-0.884,0.164,-1.404,4.333,0.427
-0.466,-0.890,0.148,-2.319,1.282,0.488
-0.467,-0.893,0.148,-1.587,3.296,0.366
-0.395,-0.912,0.132,-1.648,5.310,-0.061
-0.368,-0.887,0.126,0.061,4.333,1.099
-0.435,-0.890,0.196,4.089,8.057,4.761
-0.418,-0.981,0.202,2.747,5.432,2.319
-0.466,-0.923,0.176,1.648,1.404,2.869
-0.443,-0.922,0.158,1.770,2.136,1.465
-0.379,-0.917,0.141,3.113,2.014,1.038
-0.373,-0.895,0.143,2.808,1.465,1.892
-0.434,-0.892,0.147,1.038,0.366,2.563
-0.426,-0.910,0.155,1.404,1.404,1.587
-0.418,-0.922,0.154,2.686,2.380,0.610
-0.421,-0.908,0.141,2.014,1.770,-0.488
-0.417,-0.912,0.150,3.906,1.160,-0.977
-0.449,-0.851,0.146,4.333,1.282,-0.549
-0.392,-0.917,0.157,3.845,-2.319,-0.793
-0.427,-0.907,0.127,2.625,-2.380,-0.122
-0.420,-0.903,0.121,3.967,2.441,0.793
-0.418,-0.917,0.149,6.348,4.761,0.732
-0.424,-0.920,0.128,5.981,0.793,-0.488
-0.412,-0.925,0.121,6.348,-2.197,-1.770
-0.425,-0.914,0.133,2.625,3.784,-1.038
-0.416,-0.888,0.124,-2.502,2.258,-4.333
-0.420,-0.897,0.092,-2.136,-1.038,-2.930
-0.409,-0.902,0.100,-0.854,3.784,-0.793
-0.423,-0.901,0.133,4.578,12.146,0.305
-0.429,-0.915,0.146,5.066,5.249,1.160
-0.428,-0.918,0.119,3.845,3.174,3.784
-0.406,-0.922,0.121,7.874,7.202,7.568
-0.445,-0.918,0.120,16.418,6.897,8.972
-0.423,-0.916,0.116,22.583,6.348,-3.235
-0.420,-0.918,0.113,26.184,7.996,-1.465
-0.427,-0.916,0.112,30.090,6.165,-3.784
-0.436,-0.924,0.089,25.024,3.113,-5.920
-0.425,-0.893,0.062,18.494,1.831,-7.446
-0.429,-0.917,0.073,16.968,6.287,-5.981
-0.431,-0.916,0.077,14.221,8.789,-3.357
-0.435,-0.904,0.061,15.259,2.930,-4.089
-0.433,-0.911,0.078,12.939,3.113,-2.502
-0.420,-0.894,0.071,10.742,2.380,-0.427
-0.443,-0.908,0.001,20.691,-3.113,0.122
-0.462,-0.922,-0.018,19.897,-0.183,2.747
-0.444,-0.932,-0.005,18.616,5.371,3.784
-0.432,-0.916,0.007,18.188,6.592,2.563
-0.436,-0.945,0.028,14.832,3.296,5.005
-0.434,-0.912,-0.007,3.357,0.244,9.277
-0.419,-0.918,-0.018,1.282,2.808,8.911
-0.420,-0.929,-0.011,2.625,7.263,5.371
-0.490,-0.897,-0.003,3.052,4.272,4.272
-0.415,-0.923,-0.025,1.282,2.441,2.991
-0.357,-0.929,-0.017,1.526,4.639,0.916
-0.400,-0.896,0.044,0.244,6.836,1.831
-0.420,-0.902,0.063,-1.343,5.127,-1.404
-0.421,-0.915,0.021,-1.404,2.197,-8.240
-0.428,-0.899,-0.031,0.732,-3.357,0.061
-0.488,-0.926,0.000,2.686,-0.183,3.784
-0.421,-0.943,0.011,4.517,2.197,2.869
-0.425,-0.945,0.005,5.005,0.793,1.709
-0.431,-0.931,-0.009,2.136,-0.061,0.549
-0.420,-0.919,-0.025,2.686,1.404,-3.174
-0.420,-0.931,-0.023,5.859,2.563,-3.113
-0.439,-0.921,-0.031,3.784,2.258,-1.404

-0.436,-0.910,-0.026,2.258,4.089,-2.075
-0.425,-0.907,-0.009,0.488,5.188,-0.488
-0.423,-0.912,-0.007,0.916,3.174,0.000
-0.465,-0.882,-0.005,1.465,2.686,-0.610
-0.440,-0.909,-0.008,1.465,3.174,-1.282
-0.431,-0.906,-0.000,2.380,2.380,-1.770
-0.447,-0.913,-0.008,2.380,1.160,-1.343
-0.419,-0.905,-0.012,3.113,0.977,0.000
-0.495,-0.876,-0.011,2.441,0.916,0.977
-0.471,-0.929,-0.009,1.831,1.587,1.099
-0.478,-0.924,-0.004,1.892,2.563,-0.122
-0.433,-0.922,-0.010,2.258,2.136,-1.343
-0.448,-0.920,-0.020,2.136,0.305,-1.831
-0.452,-0.923,-0.025,-0.671,1.953,-1.282
-0.437,-0.915,-0.016,-0.793,3.052,-1.038
-0.476,-0.881,-0.003,1.892,2.258,-0.977
-0.459,-0.903,-0.013,2.014,-0.488,-0.549
-0.445,-0.894,-0.024,0.732,1.465,-0.793
-0.440,-0.911,-0.012,0.610,3.113,0.000
-0.445,-0.910,-0.016,2.136,1.587,2.380
-0.498,-0.899,-0.016,4.578,1.587,2.441
-0.506,-0.899,-0.013,3.723,2.686,0.183
-0.432,-0.956,-0.015,2.014,2.563,-1.099
-0.384,-0.932,-0.028,0.061,2.197,-1.404
-0.451,-0.872,-0.026,2.136,1.831,-2.563
-0.479,-0.902,-0.019,2.869,1.892,-0.610
-0.484,-0.918,-0.015,0.061,3.235,1.160
-0.479,-0.914,-0.004,-1.099,2.930,0.305
-0.459,-0.945,-0.009,0.549,1.282,-0.061
-0.463,-0.935,-0.006,0.732,0.061,0.671
-0.389,-0.913,-0.018,0.610,-0.061,1.465
-0.445,-0.900,-0.013,1.282,0.061,2.136
-0.451,-0.912,-0.017,0.671,-0.732,3.174
-0.447,-0.911,-0.024,-0.061,-1.465,3.479
-0.495,-0.884,-0.016,-0.549,-1.404,2.075
-0.488,-0.919,-0.014,-1.221,-0.244,0.854
-0.423,-0.951,-0.027,-2.136,0.671,-0.427
-0.448,-0.906,-0.029,-1.587,1.587,-0.793
-0.443,-0.883,-0.024,-0.916,1.770,0.427
-0.450,-0.897,-0.011,-3.906,2.014,2.136
-0.502,-0.884,0.005,-9.705,1.282,6.042
-0.432,-0.935,0.018,-9.705,0.793,4.089
-0.444,-0.962,0.042,-12.756,-1.465,2.502
-0.441,-0.903,0.010,-22.217,-3.662,5.188
-0.433,-0.895,-0.023,-17.700,-4.028,8.911
-0.447,-0.936,-0.011,-11.475,-1.160,11.230
-0.446,-0.947,0.038,-15.442,1.770,7.324
-0.355,-0.919,0.046,-14.526,1.099,1.648
-0.398,-0.899,0.057,-12.329,-1.709,1.038
-0.504,-0.918,0.060,-15.442,-2.136,-0.305
-0.453,-0.921,0.057,-13.062,1.099,-2.930
-0.442,-0.926,0.070,-7.629,1.648,-1.892
-0.440,-0.888,0.056,-8.423,0.793,-0.977
-0.498,-0.862,0.052,-7.141,1.709,-0.610
-0.468,-0.893,0.063,-7.812,4.089,1.831
-0.431,-0.871,0.056,-12.573,4.456,4.150
-0.437,-0.900,0.077,-3.662,7.263,6.348
-0.437,-0.921,0.093,-0.854,8.728,14.038
-0.438,-0.920,0.093,-2.869,9.338,21.851
-0.388,-0.926,0.131,-1.831,11.841,17.578
-0.366,-0.960,0.145,0.366,9.705,14.648
-0.318,-0.936,0.148,0.977,3.906,11.169
-0.395,-0.914,0.135,-0.854,-0.854,3.235
-0.395,-0.907,0.118,-5.310,-0.488,-3.601
-0.371,-0.901,0.114,-6.836,-0.183,-11.719
-0.348,-0.902,0.086,-6.775,-1.831,-10.742
-0.355,-0.943,0.102,-4.028,1.831,-4.639
-0.411,-0.916,0.123,-2.258,1.770,-1.648
-0.423,-0.912,0.128,-3.296,-1.160,-0.977
-0.420,-0.922,0.132,-3.967,0.610,-1.465
-0.389,-0.930,0.139,-4.028,0.977,-2.563
-0.406,-0.901,0.125,-5.310,-1.221,-3.174
-0.484,-0.890,0.144,-6.836,2.136,-2.319
-0.448,-0.909,0.162,-8.850,2.808,-1.709
-0.376,-0.905,0.136,-7.202,-2.258,2.319
-0.431,-0.914,0.138,0.549,1.099,3.540
-0.482,-0.866,0.144,-1.099,3.662,1.282
-0.436,-0.891,0.155,-0.061,4.883,1.648
-0.454,-0.912,0.157,0.366,2.014,3.540
-0.383,-0.951,0.150,0.183,1.099,5.920
-0.375,-0.901,0.140,-2.258,3.052,5.249
-0.404,-0.921,0.169,1.282,2.808,4.578
-0.434,-0.929,0.148,0.610,-1.465,3.296
-0.408,-0.914,0.144,-2.197,2.197,0.854
-0.457,-0.904,0.154,0.610,1.892,1.343
-0.422,-0.911,0.135,0.671,-0.183,1.770
-0.357,-0.911,0.141,-1.099,2.502,3.784
-0.379,-0.921,0.153,-1.648,4.150,2.380
-0.414,-0.914,0.154,-2.319,4.456,1.404
-0.426,-0.912,0.156,-3.845,3.967,2.014
-0.486,-0.882,0.162,-5.737,3.174,1.404
-0.457,-0.892,0.188,-1.709,4.089,0.916
-0.426,-0.905,0.191,0.305,2.747,0.977
-0.370,-0.906,0.170,-1.404,1.099,1.038
-0.406,-0.895,0.170,-0.244,1.221,2.136
-0.469,-0.888,0.183,2.686,0.916,2.991
-0.441,-0.914,0.177,3.540,-0.061,1.221
-0.354,-0.920,0.162,2.747,1.221,0.427
-0.369,-0.905,0.163,2.747,1.648,1.953
-0.394,-0.930,0.173,4.333,0.488,1.648

-0.398,-0.890,0.135,-2.380,-3.540,0.061
-0.426,-0.929,0.132,-1.526,-0.244,3.845
-0.446,-0.929,0.215,1.526,9.583,-2.747
-0.425,-0.886,0.195,-2.075,1.465,-3.845
-0.370,-0.908,0.153,-1.404,-2.991,-1.709
-0.354,-0.935,0.164,-3.174,0.793,-3.723
-0.371,-0.913,0.155,-0.427,1.953,-2.563
-0.464,-0.866,0.143,1.892,0.549,0.122
-0.475,-0.877,0.152,2.502,1.709,1.953
-0.433,-0.891,0.169,2.014,4.272,1.831
-0.355,-0.940,0.176,1.404,2.441,1.465
-0.382,-0.940,0.174,0.427,2.747,0.122
-0.455,-0.882,0.155,-0.061,3.113,-0.305
-0.421,-0.895,0.162,0.122,3.357,0.366
-0.522,-0.842,0.175,1.099,2.380,0.061
-0.439,-0.904,0.194,0.183,2.075,-0.061
-0.437,-0.911,0.175,1.404,0.977,-0.793
-0.382,-0.921,0.158,0.122,1.526,1.648
-0.413,-0.885,0.170,-0.427,2.747,1.160
-0.418,-0.896,0.178,-1.404,0.244,2.136
-0.421,-0.896,0.169,-1.648,0.122,2.686
-0.406,-0.896,0.155,-2.808,1.099,2.991
-0.365,-0.910,0.151,-2.075,3.601,2.869
-0.425,-0.899,0.173,-0.488,5.371,2.197
-0.510,-0.843,0.214,-0.183,4.456,1.465
-0.406,-0.944,0.215,-0.671,2.808,0.183
-0.420,-0.911,0.194,-0.305,1.221,-0.732
-0.418,-0.891,0.178,-0.366,1.099,-1.282
-0.408,-0.864,0.167,1.343,1.160,0.244
-0.458,-0.868,0.180,1.831,1.465,1.648
-0.433,-0.900,0.183,2.380,2.014,2.747
-0.441,-0.910,0.191,2.258,2.136,3.113
-0.381,-0.929,0.174,2.747,2.197,2.869
-0.390,-0.879,0.149,1.587,-0.671,1.404
-0.387,-0.923,0.161,3.601,3.967,4.089
-0.429,-0.917,0.213,4.333,6.042,1.221
-0.446,-0.887,0.194,0.977,2.075,-0.610
-0.404,-0.922,0.169,1.526,1.099,0.061
-0.409,-0.908,0.161,1.831,2.563,0.122
-0.383,-0.899,0.165,2.747,3.113,1.160
-0.410,-0.899,0.180,1.709,2.197,1.831
-0.431,-0.911,0.191,2.075,2.747,1.770
-0.368,-0.923,0.187,1.343,2.075,1.526
-0.384,-0.894,0.168,1.160,0.549,0.854
-0.451,-0.905,0.159,1.343,1.221,1.770
-0.417,-0.912,0.160,0.793,2.075,1.953
-0.455,-0.868,0.149,1.038,3.174,1.648
-0.421,-0.882,0.181,1.526,2.930,1.526
-0.470,-0.855,0.192,3.418,0.916,0.916
-0.395,-0.948,0.194,1.221,0.793,1.648
-0.339,-0.963,0.161,-0.427,0.977,1.038
-0.408,-0.876,0.149,0.366,2.747,2.014
-0.400,-0.885,0.155,0.732,1.709,0.793
-0.484,-0.831,0.183,0.610,1.709,1.160
-0.442,-0.933,0.204,-0.183,0.000,0.366
-0.462,-0.900,0.173,1.038,-0.366,-0.977
-0.349,-0.972,0.167,4.517,0.854,-0.977
-0.347,-0.906,0.141,5.859,1.038,0.305
-0.467,-0.817,0.144,4.395,1.465,1.160
-0.452,-0.837,0.156,3.479,2.808,1.038
-0.496,-0.853,0.182,4.333,1.831,1.343
-0.415,-0.953,0.173,4.578,0.244,1.770
-0.316,-0.969,0.156,6.470,2.747,2.136
-0.369,-0.940,0.175,7.141,2.197,2.625
-0.397,-0.891,0.158,1.648,-1.160,0.183
-0.449,-0.885,0.148,-3.601,-0.977,0.183
-0.413,-0.910,0.153,-2.014,0.549,0.671
-0.410,-0.913,0.156,2.319,0.488,0.732
-0.421,-0.908,0.155,0.977,2.014,0.366
-0.372,-0.934,0.151,0.305,0.793,-0.244
-0.386,-0.919,0.150,1.404,0.366,-0.610
-0.461,-0.905,0.169,1.709,2.319,-1.831
-0.421,-0.942,0.185,-1.831,2.625,-2.441
-0.416,-0.904,0.147,-2.197,1.038,-2.197
-0.455,-0.843,0.141,-1.160,2.075,-1.770
-0.431,-0.874,0.173,-0.610,3.357,-1.953
-0.508,-0.800,0.165,0.366,0.122,-1.526
-0.446,-0.958,0.181,-0.122,2.869,0.854
-0.351,-1.002,0.156,1.343,4.517,0.427
-0.397,-0.862,0.121,3.174,2.625,1.160
-0.436,-0.908,0.155,6.287,4.028,2.014
-0.424,-0.916,0.169,7.874,3.906,0.305
-0.437,-0.906,0.166,5.310,2.075,-1.160
-0.483,-0.893,0.152,2.075,1.892,-1.587
-0.415,-0.921,0.158,4.822,2.686,-1.282
-0.444,-0.916,0.164,7.141,1.343,-1.038
-0.383,-0.919,0.148,5.127,0.366,0.061
-0.432,-0.892,0.151,3.967,0.793,-2.075
-0.425,-0.884,0.150,2.991,0.366,-1.099
-0.416,-0.911,0.144,5.249,0.305,-1.099
-0.519,-0.832,0.134,5.676,-0.244,-0.366
-0.489,-0.877,0.134,3.723,-0.732,1.343
-0.361,-0.953,0.139,2.136,2.075,1.343
-0.357,-0.952,0.150,1.038,3.418,1.404
-0.383,-0.935,0.144,2.258,1.892,2.869
-0.459,-0.888,0.126,2.319,2.197,3.052
-0.522,-0.844,0.127,-0.061,2.625,4.395
-0.424,-0.863,0.129,1.404,2.075,3.296
-0.432,-0.921,0.146,2.319,1.709,3.296
-0.326,-0.957,0.147,3.723,2.136,2.014

-0.380,-0.895,0.132,4.272,2.625,1.526
-0.460,-0.929,0.127,7.080,0.183,1.038
-0.481,-0.870,0.098,5.676,-0.122,1.343
-0.470,-0.876,0.106,5.432,1.221,1.221
-0.403,-0.979,0.144,10.742,3.723,0.732
-0.407,-0.954,0.143,10.010,3.784,0.061
-0.390,-0.910,0.106,3.296,3.662,-0.061
-0.411,-0.900,0.110,2.686,3.052,0.549
-0.427,-0.919,0.112,5.615,2.380,0.549
-0.439,-0.914,0.113,3.845,2.808,-1.648
-0.478,-0.892,0.127,1.526,3.845,-1.892
-0.446,-0.898,0.126,0.488,2.625,-2.197
-0.385,-0.903,0.109,2.258,0.427,-1.953
-0.398,-0.882,0.101,0.366,2.991,0.854
-0.429,-0.899,0.121,0.427,2.625,0.916
-0.440,-0.904,0.082,2.441,1.160,0.610
-0.444,-0.909,0.083,7.507,5.981,1.831
-0.466,-0.900,0.134,8.545,8.423,3.296
-0.431,-0.919,0.153,8.057,5.371,0.793
-0.427,-0.924,0.133,6.897,-0.061,-1.587
-0.441,-0.921,0.101,8.240,-1.038,-1.770
-0.448,-0.926,0.095,9.705,1.404,-2.625
-0.402,-0.923,0.084,10.010,1.038,-2.563
-0.450,-0.904,0.082,9.521,-0.366,-2.991
-0.453,-0.886,0.056,7.446,-1.648,-4.333
-0.452,-0.893,0.067,4.089,2.747,-3.357
-0.384,-0.910,0.083,1.953,4.395,-2.563
-0.434,-0.874,0.085,0.305,2.502,-0.977
-0.507,-0.875,0.084,1.282,0.671,0.061
-0.451,-0.923,0.101,-1.587,2.502,0.244
-0.473,-0.869,0.069,-0.916,1.221,-0.916
-0.510,-0.848,0.063,0.244,0.183,-0.244
-0.443,-0.908,0.078,0.854,1.160,-1.404
-0.349,-1.005,0.080,2.441,1.831,-0.793
-0.388,-1.016,0.090,2.686,2.686,0.610
-0.386,-0.929,0.063,0.671,2.808,0.977
-0.507,-0.802,0.048,-0.366,1.953,0.854
-0.473,-0.869,0.075,-0.305,3.235,1.892
-0.462,-0.854,0.105,0.732,3.479,2.563
-0.432,-0.944,0.121,0.732,-1.953,2.502
-0.449,-0.958,0.050,-0.732,0.793,0.671
-0.478,-0.871,0.044,0.061,6.226,0.854
-0.515,-0.859,0.100,2.258,3.113,1.831
-0.490,-0.848,0.085,2.075,0.183,0.793
-0.443,-0.903,0.089,0.793,0.488,0.854
-0.416,-0.954,0.090,1.404,1.160,0.732
-0.414,-0.953,0.096,2.380,1.221,0.671
-0.445,-0.904,0.073,1.587,1.770,0.854
-0.480,-0.860,0.068,2.380,2.136,1.709
-0.459,-0.899,0.084,2.686,1.770,1.953
-0.454,-0.902,0.084,2.197,1.831,1.770
-0.460,-0.898,0.070,2.319,1.160,1.892
-0.497,-0.886,0.070,2.380,1.282,2.136
-0.486,-0.912,0.083,5.432,1.526,2.380
-0.419,-0.926,0.070,3.845,0.488,1.160
-0.413,-0.905,0.049,1.526,0.061,1.465
-0.430,-0.911,0.068,0.366,1.465,0.732
-0.431,-0.945,0.092,0.000,1.465,0.000
-0.435,-0.939,0.073,0.000,0.916,-0.610
-0.457,-0.901,0.051,1.587,1.282,-0.671
-0.443,-0.918,0.052,0.732,1.526,-0.122
-0.450,-0.817,0.063,0.366,1.404,0.916
-0.468,-0.844,0.100,1.099,1.648,1.465
-0.476,-0.839,0.092,0.061,1.099,2.014
-0.421,-0.955,0.082,0.732,0.793,2.502
-0.451,-0.921,0.064,1.221,1.709,3.113
-0.500,-0.914,0.094,1.282,1.709,2.747
-0.427,-0.933,0.085,2.502,0.916,2.380
-0.411,-0.908,0.071,2.197,-1.221,2.380
-0.407,-0.919,0.050,1.526,-2.197,0.671
-0.453,-0.889,0.057,-0.183,-0.549,-0.549
-0.452,-0.909,0.056,-0.549,0.183,-0.427
-0.452,-0.898,0.048,0.061,0.427,0.916
-0.450,-0.886,0.060,-0.122,2.136,0.183
-0.412,-0.916,0.061,-0.671,1.892,0.549
-0.422,-0.899,0.068,-1.343,2.747,0.488
-0.491,-0.880,0.075,-0.366,2.197,0.793
-0.465,-0.955,0.097,0.793,3.052,1.587
-0.443,-0.937,0.097,2.441,2.136,2.014
-0.424,-0.948,0.078,2.625,2.197,1.770
-0.454,-0.886,0.069,2.197,3.113,2.563
-0.395,-0.892,0.052,-0.183,1.282,2.686
-0.507,-0.791,0.054,-0.305,0.061,2.563
-0.508,-0.860,0.090,-1.282,1.953,3.967
-0.390,-0.985,0.098,-2.930,1.526,4.761
-0.417,-0.944,0.051,-1.892,1.099,5.005
-0.469,-0.922,0.075,-3.052,2.869,4.456
-0.460,-0.870,0.056,-2.136,3.296,4.028
-0.449,-0.899,0.081,0.488,1.770,0.427
-0.383,-1.007,0.100,-0.122,0.854,-2.136
-0.403,-0.970,0.116,-0.061,1.953,1.587
-0.359,-0.973,0.081,-0.671,1.160,1.587
-0.443,-0.869,0.051,-1.221,0.671,0.916
-0.471,-0.837,0.071,-0.732,1.038,1.099
-0.440,-0.884,0.085,-1.465,0.916,2.441
-0.442,-0.905,0.078,-1.099,1.038,3.235
-0.461,-0.922,0.087,-2.136,1.953,2.686
-0.397,-0.930,0.092,-3.845,4.150,2.502
-0.408,-0.906,0.094,-3.906,3.662,2.319
-0.405,-0.918,0.085,-1.221,2.625,1.465

-0.451,-0.897,0.090,-0.610,4.089,0.732
-0.442,-0.906,0.098,-0.122,3.784,0.549
-0.441,-0.910,0.101,-0.671,3.784,0.305
-0.404,-0.917,0.097,-1.404,3.845,0.000
-0.394,-0.898,0.096,-2.502,1.953,0.183
-0.436,-0.874,0.088,-1.526,0.488,0.305
-0.496,-0.880,0.105,0.305,2.014,2.197
-0.469,-0.923,0.125,4.333,2.869,2.869
-0.442,-0.896,0.111,2.930,1.404,1.709
-0.436,-0.900,0.100,3.113,0.671,2.930
-0.435,-0.903,0.093,2.319,1.038,3.235
-0.461,-0.892,0.100,3.357,1.770,3.540
-0.460,-0.901,0.103,2.563,1.282,2.441
-0.485,-0.907,0.099,0.732,0.549,1.343
-0.423,-0.926,0.090,0.427,1.404,0.854
-0.410,-0.912,0.096,-0.244,1.831,0.793
-0.436,-0.911,0.105,-0.916,1.770,-0.122
-0.440,-0.907,0.100,-1.221,1.465,-0.732
-0.519,-0.832,0.089,-0.061,1.465,-0.427
-0.457,-0.916,0.103,1.465,2.136,1.343
-0.463,-0.915,0.113,1.587,2.991,1.587
-0.401,-0.924,0.101,0.977,2.441,1.282
-0.401,-0.908,0.093,2.258,1.526,1.221
-0.439,-0.909,0.096,2.319,1.282,0.854
-0.441,-0.905,0.106,0.000,2.441,0.244
-0.489,-0.898,0.115,-0.671,2.258,-0.366
-0.430,-0.912,0.107,-0.061,1.648,0.122
-0.442,-0.910,0.103,1.709,0.366,0.488
-0.384,-0.905,0.088,0.061,0.916,0.183
-0.422,-0.882,0.097,-0.183,1.953,0.488
-0.446,-0.905,0.101,1.221,1.831,1.953
-0.448,-0.910,0.108,0.549,2.441,1.648
-0.449,-0.906,0.107,0.122,2.014,1.038
-0.402,-0.909,0.091,0.244,0.793,0.793
-0.379,-0.890,0.085,2.686,-0.244,0.671
-0.379,-0.900,0.101,1.709,0.427,-1.099
-0.462,-0.892,0.122,1.099,-0.366,-2.319
-0.467,-0.907,0.109,1.770,-1.709,-2.136
-0.457,-0.912,0.091,0.977,-0.305,-0.610
-0.446,-0.907,0.082,1.465,-0.183,1.160
-0.377,-0.917,0.079,2.686,-0.061,0.610
-0.413,-0.891,0.086,1.038,0.000,-0.732
-0.501,-0.902,0.104,-0.854,1.160,-1.404
-0.497,-0.896,0.105,-2.686,1.953,-1.709
-0.452,-0.920,0.102,-0.305,1.587,-0.610
-0.449,-0.891,0.083,0.122,1.465,-1.099
-0.451,-0.887,0.101,1.221,1.282,1.770
-0.440,-0.879,0.082,1.587,0.793,1.587
-0.487,-0.861,0.092,3.113,1.892,6.287
-0.475,-0.897,0.096,2.258,2.136,2.625
-0.451,-0.899,0.091,2.991,2.441,1.953
-0.453,-0.923,0.109,1.526,3.296,2.197
-0.444,-0.899,0.095,2.258,1.648,1.770
-0.464,-0.899,0.087,1.709,3.052,-0.244
-0.449,-0.895,0.103,0.916,3.906,-0.916
-0.477,-0.913,0.106,3.235,1.404,1.587
-0.501,-0.909,0.089,2.258,2.563,1.465
-0.413,-0.925,0.090,2.197,3.540,1.221
-0.391,-0.914,0.092,2.441,2.441,0.977
-0.450,-0.899,0.097,1.465,1.343,0.122
-0.453,-0.900,0.095,0.793,1.282,0.061
-0.452,-0.897,0.097,0.000,1.526,-0.427
-0.445,-0.888,0.098,0.244,1.587,-2.441
-0.472,-0.898,0.091,0.977,0.854,-1.770
-0.458,-0.902,0.088,0.610,1.099,-2.319
-0.458,-0.892,0.088,1.221,1.648,-1.526
-0.458,-0.903,0.094,1.343,2.197,-0.854
-0.461,-0.902,0.096,0.610,1.709,0.427
-0.463,-0.895,0.091,-0.122,1.648,0.183
-0.457,-0.887,0.083,0.183,2.319,0.305
-0.455,-0.890,0.090,2.014,2.380,1.648
-0.459,-0.896,0.091,2.380,1.770,1.770
-0.457,-0.894,0.089,0.793,2.991,1.648
-0.455,-0.902,0.096,1.099,3.540,1.953
-0.463,-0.903,0.102,0.000,2.380,0.977
-0.457,-0.903,0.097,0.549,1.404,0.427
-0.457,-0.899,0.090,0.000,1.831,0.183
-0.452,-0.860,0.183,2.075,2.197,0.305
-0.467,-0.897,0.080,1.160,-3.235,0.305
-0.469,-0.892,0.029,-0.854,2.197,0.366
-0.444,-0.884,0.080,0.854,6.958,3.113
-0.455,-0.901,0.112,2.502,2.686,3.357
-0.462,-0.915,0.099,0.977,2.380,2.014
-0.458,-0.911,0.089,1.221,2.686,0.610
-0.405,-0.919,0.088,1.953,2.991,0.427
-0.453,-0.887,0.094,1.648,1.709,-0.061
-0.446,-0.882,0.085,2.014,1.526,-0.244
-0.503,-0.872,0.103,-0.122,2.869,0.061
-0.475,-0.891,0.106,-0.122,2.747,0.122
-0.420,-0.917,0.121,0.610,2.197,1.099
-0.457,-0.896,0.095,1.892,3.113,0.305
-0.457,-0.891,0.105,1.831,2.808,0.793
-0.459,-0.889,0.102,2.441,1.770,1.404
-0.461,-0.893,0.104,2.319,1.587,1.892
-0.443,-0.905,0.098,2.808,0.183,2.441
-0.402,-0.906,0.083,2.563,0.061,3.052
-0.462,-0.887,0.090,0.916,0.061,1.892
-0.510,-0.897,0.105,-0.732,-0.305,1.221
-0.513,-0.895,0.092,0.671,-1.526,0.427
-0.488,-0.916,0.082,0.854,-0.366,-0.305

-0.403,-0.905,0.085,1.160,0.732,0.366
-0.416,-0.914,0.094,1.770,0.061,0.977
-0.429,-0.910,0.087,-1.465,0.732,2.502
-0.499,-0.877,0.101,-1.282,0.000,8.911
-0.507,-0.864,0.101,1.587,-0.610,7.263
-0.482,-0.875,0.100,1.709,0.122,4.517
-0.427,-0.922,0.075,0.549,-1.343,3.174
-0.387,-0.929,0.049,0.244,-0.305,1.587
-0.447,-0.921,0.065,0.488,3.601,1.038
-0.451,-0.910,0.073,1.282,5.066,-0.244
-0.457,-0.924,0.092,0.488,5.737,-0.793
-0.459,-0.925,0.120,-1.343,5.676,-2.014
-0.445,-0.925,0.125,-0.488,2.625,3.113
-0.426,-0.900,0.116,0.305,0.244,2.930
-0.430,-0.857,0.096,1.831,-0.793,-1.038
-0.448,-0.864,0.089,2.625,-0.366,1.892
-0.442,-0.867,0.085,2.808,-0.366,3.845
-0.443,-0.880,0.086,3.052,-0.061,5.676
-0.446,-0.917,0.092,1.831,1.160,6.226
-0.449,-0.935,0.087,2.136,0.122,4.639
-0.450,-0.932,0.078,3.052,-0.732,3.296
-0.448,-0.934,0.065,3.601,0.732,1.831
-0.441,-0.920,0.076,0.427,2.502,-0.732
-0.438,-0.903,0.078,0.305,2.380,-1.282
-0.442,-0.896,0.080,0.366,3.662,-1.221
-0.394,-0.821,0.237,1.465,2.747,-1.282
-0.450,-0.880,0.119,0.122,-4.700,-3.418
-0.486,-0.921,0.017,1.892,1.404,-2.319
-0.446,-0.885,0.037,1.038,6.104,-0.183
-0.431,-0.892,0.088,3.723,3.662,4.150
-0.454,-0.918,0.091,2.808,3.052,4.150
-0.419,-0.957,0.087,3.174,4.211,3.174
-0.399,-0.922,0.080,3.845,3.052,3.479
-0.469,-0.902,0.098,1.160,2.197,1.160
-0.454,-0.883,0.077,0.122,1.221,-1.221
-0.493,-0.878,0.079,1.221,2.502,-0.793
-0.440,-0.887,0.074,2.014,3.235,-0.977
-0.428,-0.884,0.084,1.709,2.869,0.671
-0.430,-0.887,0.081,1.221,1.587,3.906
-0.427,-0.905,0.077,0.854,1.892,3.418
-0.450,-0.909,0.081,1.831,2.625,-1.709
-0.454,-0.913,0.078,2.197,2.319,-2.930
-0.482,-0.924,0.082,0.610,2.319,0.061
-0.421,-0.927,0.067,0.366,2.930,0.977
-0.408,-0.918,0.071,1.343,3.662,1.282
-0.466,-0.926,0.095,3.601,2.258,0.061
-0.455,-0.876,0.083,1.343,1.404,0.427
-0.445,-0.892,0.074,0.732,1.221,0.061
-0.446,-0.899,0.073,1.160,2.136,0.793
-0.445,-0.906,0.094,0.916,1.648,1.038
-0.450,-0.911,0.101,0.061,0.671,1.160
-0.441,-0.888,0.086,0.061,-1.526,1.221
-0.445,-0.890,0.062,0.977,-1.648,2.319
-0.491,-0.896,0.066,0.671,1.526,2.197
-0.413,-0.927,0.072,-0.305,3.601,2.319
-0.426,-0.925,0.070,1.404,1.587,2.441
-0.384,-0.927,0.121,5.310,-1.526,2.258
-0.490,-0.906,0.058,1.160,-2.686,1.282
-0.471,-0.906,0.004,-1.160,6.042,0.366
-0.423,-0.901,0.084,4.272,10.010,2.991
-0.441,-0.914,0.096,4.517,5.249,4.333
-0.445,-0.920,0.087,2.197,4.211,5.981
-0.446,-0.931,0.078,0.000,5.310,7.324
-0.435,-0.918,0.089,0.916,4.211,2.563
-0.432,-0.895,0.086,1.770,2.258,-1.221
-0.436,-0.895,0.081,0.671,1.953,-0.366
-0.433,-0.904,0.086,-2.441,2.625,-0.671
-0.468,-0.900,0.088,-3.662,0.732,0.122
-0.445,-0.897,0.084,-2.258,-0.122,1.282
-0.479,-0.884,0.077,-2.686,0.854,2.380
-0.461,-0.917,0.095,-3.357,0.671,2.625
-0.441,-0.916,0.081,-4.517,1.465,1.526
-0.419,-0.952,0.101,-4.211,2.441,1.770
-0.441,-0.909,0.108,-1.221,2.869,2.014
-0.421,-0.906,0.117,-0.793,1.831,1.892
-0.443,-0.898,0.105,-3.662,1.709,0.916
-0.418,-0.897,0.110,-5.432,1.892,1.526
-0.434,-0.891,0.102,-4.089,0.366,2.808
-0.442,-0.904,0.109,-3.113,0.610,2.441
-0.442,-0.899,0.110,-9.705,1.587,0.671
-0.434,-0.896,0.123,-8.911,1.953,1.282
-0.441,-0.898,0.118,-6.653,0.916,2.991
-0.437,-0.926,0.116,-0.244,1.282,4.150
-0.430,-0.909,0.124,-0.732,1.404,3.357
-0.401,-0.894,0.126,-3.540,1.892,1.953
-0.426,-0.881,0.121,-4.272,0.183,3.540
-0.429,-0.901,0.112,-2.136,-1.099,4.456
-0.428,-0.914,0.137,-1.465,1.404,4.456
-0.434,-0.909,0.137,-5.066,2.441,4.333
-0.429,-0.918,0.126,-5.066,4.211,5.188
-0.436,-0.948,0.143,1.038,2.014,10.132
-0.397,-0.931,0.131,-0.244,-0.305,13.184
-0.392,-0.921,0.140,-2.258,1.770,12.024
-0.418,-0.889,0.127,-7.080,2.502,4.944
-0.392,-0.882,0.135,-11.658,3.784,13.550
-0.389,-0.921,0.160,-6.531,3.113,7.446
-0.387,-0.915,0.176,-5.188,2.380,5.249
-0.401,-0.911,0.183,-4.822,0.366,1.099
-0.403,-0.905,0.171,-5.371,-0.610,0.427
-0.391,-0.903,0.172,-4.211,0.732,-3.906

-0.395,-0.893,0.170,-1.587,1.526,-7.446
-0.401,-0.902,0.175,-0.671,2.075,-7.507
-0.407,-0.919,0.186,-1.953,2.747,-7.141
-0.420,-0.879,0.141,-5.676,-1.770,-5.798
-0.419,-0.902,0.163,-4.395,3.296,-1.099
-0.435,-0.928,0.212,1.709,5.798,-2.625
-0.430,-0.916,0.210,3.845,0.977,-3.418
-0.418,-0.877,0.159,1.831,-2.197,1.770
-0.411,-0.880,0.148,1.160,3.052,4.150
-0.418,-0.863,0.154,-0.549,6.042,2.441
-0.408,-0.911,0.178,2.563,5.066,3.235
-0.420,-0.922,0.164,1.587,2.686,4.883
-0.415,-0.919,0.169,3.479,2.747,2.869
-0.426,-0.933,0.168,3.174,3.174,-2.441
-0.422,-0.922,0.174,0.183,3.906,-2.502
-0.419,-0.906,0.164,-1.770,4.272,-0.977
-0.415,-0.899,0.160,0.244,5.493,-0.854
-0.416,-0.896,0.177,1.038,6.836,-0.854
-0.416,-0.890,0.189,0.366,5.920,-0.549
-0.382,-0.913,0.197,-0.549,4.700,-0.427
-0.400,-0.884,0.195,-1.709,3.601,-0.732
-0.464,-0.866,0.206,-2.258,2.686,-0.244
-0.430,-0.886,0.210,-1.343,1.770,0.488
-0.419,-0.894,0.196,0.427,0.244,0.977
-0.433,-0.883,0.186,1.770,0.732,1.221
-0.424,-0.893,0.179,1.404,0.610,0.366
-0.422,-0.901,0.184,2.075,1.099,1.587
-0.422,-0.904,0.184,2.380,0.916,2.075
-0.425,-0.914,0.184,2.563,1.343,0.671
-0.420,-0.900,0.181,0.854,1.404,0.305
-0.417,-0.897,0.181,2.014,0.854,0.610
-0.416,-0.897,0.190,1.831,0.916,0.244
-0.396,-0.894,0.180,0.549,0.427,-1.526
-0.371,-0.899,0.173,-0.427,0.610,-1.648
-0.442,-0.873,0.180,1.160,1.648,0.488
-0.457,-0.898,0.185,0.427,0.916,-0.793
-0.437,-0.903,0.176,-0.061,0.854,0.000
-0.426,-0.891,0.193,-0.061,1.770,0.122
-0.423,-0.875,0.183,0.427,0.610,1.038
-0.424,-0.875,0.169,0.916,0.000,1.587
-0.431,-0.897,0.181,-1.404,2.686,2.014
-0.429,-0.899,0.197,-1.587,2.014,2.258
-0.429,-0.896,0.192,-2.319,1.160,2.197
-0.423,-0.904,0.193,1.099,1.221,1.892
-0.426,-0.902,0.201,-1.282,0.793,-0.305
-0.413,-0.876,0.183,-2.380,0.305,-1.526
-0.419,-0.885,0.189,2.197,0.977,0.366
-0.440,-0.898,0.183,2.930,0.061,-1.099
-0.439,-0.892,0.178,1.404,1.282,0.427
-0.436,-0.897,0.187,0.854,2.136,1.709
-0.428,-0.896,0.186,2.502,2.441,1.648
-0.423,-0.883,0.187,4.211,2.258,0.305
-0.436,-0.890,0.187,4.028,2.075,-2.441
-0.415,-0.851,0.169,-2.686,-2.441,-0.916
-0.444,-0.892,0.158,-0.305,1.404,4.639
-0.450,-0.945,0.219,7.507,9.277,3.357
-0.437,-0.872,0.218,3.296,3.784,-3.723
-0.427,-0.867,0.175,1.282,-0.732,-0.549
-0.469,-0.885,0.177,2.930,0.183,4.395
-0.467,-0.853,0.141,4.700,0.122,1.221
-0.464,-0.858,0.161,6.104,2.258,3.174
-0.432,-0.927,0.195,5.188,2.930,3.296
-0.438,-0.910,0.183,4.700,1.953,2.258
-0.370,-0.951,0.182,5.981,2.319,0.732
-0.415,-0.923,0.165,6.287,2.808,0.061
-0.466,-0.847,0.155,4.456,2.686,-1.282
-0.452,-0.878,0.170,2.319,1.526,-2.136
-0.457,-0.860,0.166,-0.244,2.014,-2.441
-0.401,-0.941,0.190,2.808,1.709,-3.235
-0.449,-0.906,0.149,0.488,-2.197,-4.700
-0.449,-0.875,0.123,1.404,-1.892,-3.113
-0.431,-0.893,0.150,9.705,1.953,-0.488
-0.441,-0.895,0.169,14.587,3.540,-1.709
-0.458,-0.897,0.155,14.038,1.099,-1.709
-0.440,-0.891,0.151,10.437,2.441,-1.831
-0.436,-0.877,0.151,10.376,4.089,-1.648
-0.432,-0.903,0.136,14.099,0.610,0.366
-0.460,-0.926,0.162,16.663,-0.427,2.502
-0.483,-0.920,0.144,12.756,0.610,1.038
-0.457,-0.901,0.138,15.015,1.099,-0.061
-0.454,-0.897,0.116,15.869,-2.563,-0.488
-0.438,-0.894,0.087,12.268,-3.479,1.038
-0.445,-0.899,0.103,12.268,-0.916,3.967
-0.432,-0.902,0.081,11.475,-0.732,0.732
-0.467,-0.887,0.051,9.827,1.099,0.549
-0.462,-0.882,0.027,5.310,2.014,0.122
-0.445,-0.891,0.035,6.531,1.465,0.061
-0.441,-0.913,0.061,8.362,6.165,1.343
-0.451,-0.912,0.072,8.118,6.470,-0.122
-0.460,-0.906,0.061,5.615,4.211,0.061
-0.462,-0.912,0.056,3.052,2.686,-1.221
-0.398,-0.781,0.311,-5.920,4.883,-1.648
-0.493,-0.894,0.058,-5.798,-8.423,0.732
-0.516,-0.890,-0.057,-0.366,2.563,0.427
-0.471,-0.826,0.068,6.165,13.062,2.930
-0.488,-0.843,0.104,6.409,7.080,4.089
-0.456,-0.895,0.104,2.808,3.723,4.456
-0.431,-0.932,0.086,-0.488,1.404,1.465
-0.426,-0.891,0.067,0.488,2.197,1.526
-0.460,-0.916,0.083,3.845,1.465,1.099

-0.455,-0.919,0.073,6.165,1.221,0.488
-0.453,-0.913,0.067,2.869,2.380,-1.038
-0.454,-0.897,0.068,1.221,1.648,-0.549
-0.447,-0.903,0.071,1.831,0.916,-0.488
-0.445,-0.891,0.065,2.014,1.282,-1.648
-0.441,-0.895,0.068,3.113,0.977,-3.113
-0.457,-0.907,0.061,2.686,0.427,-1.465
-0.456,-0.899,0.051,0.854,0.305,-0.122
-0.454,-0.891,0.052,1.709,1.282,-0.305
-0.458,-0.899,0.049,1.892,1.282,-1.648
-0.397,-0.966,0.036,1.953,1.160,-0.671
-0.473,-0.850,0.025,1.587,3.906,0.366
-0.477,-0.865,0.086,2.869,3.113,-1.160
-0.420,-0.936,0.082,0.671,1.892,1.770
-0.435,-0.939,0.082,1.099,-0.183,1.160
-0.440,-0.945,0.062,-0.793,0.793,1.221
-0.483,-0.864,0.038,0.488,0.977,1.282
-0.494,-0.836,0.041,0.977,0.488,1.953
-0.485,-0.854,0.049,1.404,0.977,2.075
-0.448,-0.921,0.075,0.305,1.465,2.380
-0.425,-0.952,0.072,0.427,0.916,1.465
-0.478,-0.901,0.041,2.136,0.549,1.343
-0.496,-0.853,0.037,2.441,1.282,0.793
-0.492,-0.845,0.032,1.221,1.282,0.488
-0.466,-0.876,0.048,-0.183,0.793,0.916
-0.421,-0.952,0.068,0.305,1.831,0.916
-0.427,-0.951,0.078,0.671,3.052,0.061
-0.440,-0.951,0.066,-0.061,1.831,-0.488
-0.467,-0.895,0.050,0.000,1.526,-0.183
-0.469,-0.900,0.048,1.587,2.197,2.258
-0.441,-0.840,0.158,2.686,3.357,1.709
-0.470,-0.907,0.050,-0.732,-4.150,2.197
-0.478,-0.868,-0.019,-3.296,2.380,0.732
-0.451,-0.896,0.057,3.479,9.033,3.113
-0.465,-0.904,0.079,3.662,3.235,2.563
-0.461,-0.914,0.068,2.869,1.465,2.075
-0.465,-0.917,0.057,1.221,1.709,1.404
-0.457,-0.910,0.051,1.587,1.221,0.000
-0.460,-0.908,0.045,1.221,0.732,0.610
-0.428,-0.930,0.060,0.977,3.540,-0.183
-0.430,-0.951,0.074,0.977,3.967,-0.427
-0.481,-0.875,0.051,-0.122,2.869,0.061
-0.501,-0.842,0.049,0.305,1.587,0.732
-0.434,-0.853,0.063,0.427,2.014,1.160
-0.421,-0.893,0.062,-1.526,1.587,0.916
-0.483,-0.872,0.076,-2.075,-0.122,0.793
-0.503,-0.891,0.072,-1.465,-1.282,0.610
-0.450,-0.918,0.065,-3.113,-0.305,0.977
-0.454,-0.881,0.053,-5.615,-1.709,1.526
-0.464,-0.899,0.043,-5.615,-2.136,2.502
-0.463,-0.902,0.051,-4.639,-0.549,3.113
-0.454,-0.897,0.057,-6.409,2.197,4.272
-0.474,-0.899,0.072,-4.211,3.662,5.188
-0.460,-0.905,0.069,-5.005,2.014,4.639
-0.424,-0.900,0.071,-9.277,2.930,0.183
-0.405,-0.859,0.085,-12.451,5.981,0.793
-0.413,-0.906,0.094,-6.897,4.395,3.601
-0.489,-0.886,0.112,-4.883,1.282,1.404
-0.527,-0.871,0.118,-12.085,-1.038,0.244
-0.462,-0.887,0.117,-11.963,-2.686,1.465
-0.453,-0.872,0.105,-10.559,-2.808,2.686
-0.454,-0.883,0.114,-7.080,0.549,-0.610
-0.445,-0.901,0.143,-5.310,2.380,4.272
-0.453,-0.898,0.150,-9.705,3.601,5.371
-0.464,-0.926,0.143,-10.498,1.709,4.761
-0.441,-0.984,0.151,-10.315,1.526,14.893
-0.313,-0.957,0.142,-10.803,1.770,16.174
-0.303,-0.965,0.146,-6.775,-2.136,9.155
-0.399,-0.860,0.114,-1.953,-3.174,6.531
-0.527,-0.813,0.145,-0.916,-0.854,2.258
-0.460,-0.825,0.144,0.122,2.563,0.793
-0.418,-0.885,0.184,-0.122,3.235,2.075
-0.381,-0.953,0.178,0.977,1.648,2.075
-0.425,-0.913,0.153,-0.671,2.197,1.282
-0.407,-0.900,0.142,-4.150,1.038,-1.526
-0.489,-0.823,0.108,-3.723,3.052,2.014
-0.471,-0.882,0.163,1.404,4.578,2.136
-0.389,-0.933,0.182,-2.136,3.418,3.418
-0.369,-0.933,0.173,-3.235,4.089,1.099
-0.384,-0.973,0.182,-2.258,4.028,0.366
-0.457,-0.906,0.171,-1.892,3.235,1.648
-0.478,-0.845,0.189,-3.479,0.732,0.305
-0.422,-0.903,0.208,-6.470,-0.305,-0.488
-0.420,-0.896,0.197,-4.395,-2.136,-1.282
-0.392,-0.951,0.190,-2.930,-2.136,-1.587
-0.408,-0.884,0.156,-3.784,-1.892,-2.136
-0.484,-0.824,0.136,-3.418,0.183,-3.479
-0.446,-0.897,0.178,-0.977,2.869,-1.404
-0.444,-0.886,0.180,0.305,3.174,0.549
-0.403,-0.892,0.175,1.038,3.418,0.854
-0.387,-0.899,0.184,1.709,3.113,1.160
-0.446,-0.869,0.183,2.075,1.526,0.305
-0.492,-0.820,0.151,-4.639,-0.793,-1.709
-0.424,-0.871,0.137,-5.127,3.906,3.357
-0.419,-0.952,0.245,11.414,12.207,5.981
-0.397,-0.938,0.246,6.287,7.385,-0.854
-0.380,-0.844,0.187,0.793,-1.221,-3.540
-0.488,-0.851,0.175,1.404,0.610,-5.310
-0.486,-0.872,0.179,0.244,2.930,-2.991
-0.494,-0.859,0.196,2.075,2.930,1.221

-0.416,-0.910,0.190,4.028,2.563,2.625
-0.395,-0.919,0.181,2.747,2.869,2.747
-0.466,-0.892,0.189,1.343,3.540,1.831
-0.494,-0.884,0.185,1.282,1.831,0.854
-0.488,-0.865,0.198,1.160,0.793,0.305
-0.467,-0.865,0.184,1.221,0.610,0.000
-0.377,-0.949,0.192,0.671,1.038,-0.977
-0.438,-0.885,0.178,0.671,1.465,-0.061
-0.454,-0.887,0.172,3.479,1.587,0.305
-0.451,-0.888,0.186,1.587,3.174,0.061
-0.445,-0.879,0.181,1.099,2.808,0.183
-0.436,-0.880,0.184,3.113,3.479,0.793
-0.440,-0.887,0.189,3.479,2.441,0.977
-0.498,-0.873,0.185,3.113,1.526,0.854
-0.441,-0.909,0.174,3.113,3.357,0.244
-0.402,-0.919,0.176,2.869,4.333,-0.122
-0.446,-0.875,0.177,1.099,3.296,-0.854
-0.432,-0.888,0.172,4.883,1.648,-1.099
-0.503,-0.865,0.186,4.272,1.343,-1.343
-0.474,-0.870,0.187,0.000,3.296,-1.709
-0.397,-0.903,0.177,0.854,1.892,-0.671
-0.414,-0.897,0.179,4.883,2.319,-0.854
-0.412,-0.885,0.159,6.226,0.244,-0.610
-0.469,-0.868,0.170,10.193,2.075,0.977
-0.510,-0.899,0.186,13.428,2.930,-0.061
-0.460,-0.911,0.154,9.827,-0.427,-2.930
-0.435,-0.903,0.141,5.554,-1.038,-2.441
-0.432,-0.896,0.136,9.277,-0.244,-1.038
-0.476,-0.878,0.153,11.902,-0.183,-1.709
-0.471,-0.881,0.143,8.606,-2.319,-1.343
-0.467,-0.883,0.118,8.667,-0.732,0.671
-0.462,-0.884,0.109,6.897,-0.977,2.014
-0.481,-0.873,0.108,4.272,0.854,1.465
-0.455,-0.881,0.127,5.371,2.563,0.854
-0.457,-0.879,0.133,7.080,4.761,1.343
-0.453,-0.880,0.139,10.742,3.662,0.305
-0.455,-0.872,0.143,8.911,2.808,-2.014
-0.476,-0.870,0.157,9.460,4.272,-2.014
-0.519,-0.875,0.147,10.498,3.784,1.465
-0.534,-0.887,0.144,12.451,4.028,1.770
-0.489,-0.908,0.098,9.949,-2.380,0.366
-0.398,-0.903,0.071,12.512,-3.052,0.488
-0.459,-0.890,0.091,17.639,-2.930,1.953
-0.516,-0.878,0.076,13.916,-3.296,-1.831
-0.530,-0.874,0.050,10.681,-3.540,-2.808
-0.495,-0.913,0.053,10.315,-0.793,-1.343
-0.433,-0.943,0.030,13.733,-2.319,-1.343
-0.455,-0.891,0.026,11.719,2.808,-1.282
-0.460,-0.869,0.036,7.385,2.991,-2.563
-0.476,-0.868,0.040,4.272,2.014,-0.366
-0.483,-0.896,0.049,2.441,1.160,1.160
-0.469,-0.929,0.045,5.127,2.686,1.343
-0.477,-0.910,0.044,6.775,2.075,0.061
-0.470,-0.891,0.028,8.301,2.869,2.014
-0.465,-0.851,0.032,4.700,3.662,3.601
-0.461,-0.875,0.049,2.625,2.991,1.404
-0.473,-0.888,0.055,1.892,1.587,4.761
-0.481,-0.907,0.038,0.549,-0.977,2.686
-0.490,-0.909,0.026,3.357,1.160,1.099
-0.478,-0.900,0.017,2.991,4.395,2.502
-0.472,-0.911,0.047,3.174,3.723,2.258
-0.472,-0.898,0.040,2.747,1.648,0.183
-0.463,-0.898,0.024,2.380,0.549,0.488
-0.479,-0.897,0.020,1.587,3.235,0.732
-0.468,-0.888,0.026,3.235,2.808,0.977
-0.473,-0.898,0.034,3.784,1.709,1.160
-0.471,-0.895,0.035,1.526,2.808,0.977
-0.468,-0.892,0.033,1.221,2.197,1.099
-0.478,-0.904,0.022,1.404,3.052,1.160
-0.464,-0.900,0.031,0.916,3.357,0.732
-0.466,-0.892,0.028,1.160,1.709,1.038
-0.470,-0.893,0.028,1.587,1.404,1.282
-0.468,-0.888,0.020,1.038,0.610,1.282
-0.443,-0.909,0.060,3.967,8.423,1.160
-0.415,-0.918,0.081,-1.282,8.789,-2.869
-0.459,-0.926,0.017,3.418,-8.911,2.991
-0.503,-0.927,-0.010,4.211,-2.502,3.113
-0.422,-0.929,0.018,0.061,6.775,1.404
-0.459,-0.896,0.037,2.869,3.540,2.380
-0.475,-0.899,0.026,2.380,1.892,2.686
-0.465,-0.905,0.038,2.197,3.052,1.831
-0.472,-0.895,0.030,1.221,1.770,0.549
-0.475,-0.906,0.020,0.916,1.038,-0.916
-0.476,-0.901,0.018,0.793,2.686,-0.305
-0.471,-0.897,0.029,2.319,3.357,-1.160
-0.484,-0.897,0.031,1.709,2.625,-1.770
-0.439,-0.897,0.038,1.343,3.601,-2.563
-0.462,-0.894,0.036,1.160,1.160,-2.197
-0.476,-0.889,0.024,2.136,-0.122,-1.465
-0.476,-0.888,0.021,1.099,-0.305,0.183
-0.480,-0.880,0.009,0.427,0.427,0.183
-0.493,-0.893,0.010,0.061,1.404,-1.404
-0.510,-0.902,0.015,-0.732,4.028,-1.099
-0.494,-0.908,0.022,-0.366,4.028,-0.732
-0.472,-0.908,0.014,-2.319,4.089,0.732
-0.452,-0.880,0.031,-1.709,5.676,6.958
-0.510,-0.799,0.217,0.793,7.446,4.639
-0.494,-0.860,0.060,-2.563,-5.615,4.944
-0.529,-0.871,-0.069,-1.953,-2.502,-0.610
-0.462,-0.874,-0.004,0.183,7.141,3.235

-0.466,-0.898,0.043,4.211,7.507,4.944
-0.484,-0.911,0.044,5.249,5.310,4.395
-0.455,-0.953,0.048,2.869,2.991,1.953
-0.478,-0.915,0.021,2.075,2.441,-0.732
-0.477,-0.885,0.025,2.319,3.113,-0.732
-0.515,-0.867,0.035,2.258,2.747,-0.610
-0.516,-0.863,0.039,1.099,3.174,-0.183
-0.486,-0.901,0.050,-0.427,3.479,-0.244
-0.429,-0.917,0.036,-0.183,2.747,-0.183
-0.444,-0.883,0.028,-0.061,1.221,1.404
-0.506,-0.854,0.047,-0.427,1.709,2.441
-0.504,-0.859,0.038,-0.122,0.977,2.197
-0.523,-0.876,0.039,2.380,-0.488,2.625
-0.461,-0.929,0.021,2.563,0.366,2.502
-0.452,-0.915,0.010,1.831,2.136,0.732
-0.454,-0.918,0.016,-0.244,1.892,-0.977
-0.473,-0.901,0.024,-0.732,1.404,-0.671
-0.473,-0.890,0.024,-1.160,2.197,-0.671
-0.472,-0.891,0.029,-1.343,2.258,-0.732
-0.481,-0.891,0.035,-0.610,2.563,-0.366
-0.484,-0.890,0.040,0.000,1.526,-0.366
-0.480,-0.886,0.040,0.488,2.258,0.549
-0.476,-0.884,0.046,0.854,2.686,1.404
-0.483,-0.884,0.038,1.770,2.136,2.258
-0.477,-0.899,0.036,3.174,2.380,2.686
-0.473,-0.898,0.037,2.502,2.319,2.441
-0.469,-0.898,0.039,1.221,2.197,1.831
-0.471,-0.902,0.029,-0.427,2.258,1.160
-0.477,-0.906,0.023,0.366,1.587,-0.061
-0.479,-0.901,0.026,0.122,3.052,-0.488
-0.481,-0.896,0.041,-0.183,3.723,-0.977
-0.481,-0.888,0.042,-1.160,2.625,-1.221
-0.476,-0.873,0.029,-0.122,1.526,-0.427
-0.478,-0.879,0.030,1.343,2.563,1.709
-0.481,-0.885,0.040,0.854,2.686,1.770
-0.478,-0.883,0.031,0.366,2.930,1.770
-0.478,-0.891,0.029,0.977,5.005,2.441
-0.478,-0.896,0.030,-0.610,7.874,2.075
-0.473,-0.940,0.070,4.211,-1.221,3.052
-0.502,-0.912,0.012,1.648,-2.014,0.854
-0.493,-0.888,-0.015,0.122,6.409,0.732
-0.463,-0.889,0.049,1.282,10.315,1.404
-0.473,-0.895,0.076,2.319,3.540,2.319
-0.478,-0.901,0.057,3.174,1.404,1.465
-0.520,-0.864,0.059,1.587,2.319,0.671
-0.473,-0.904,0.056,1.282,2.197,0.610
-0.498,-0.902,0.040,1.892,0.854,0.916
-0.443,-0.927,0.021,1.892,1.526,1.282
-0.456,-0.892,0.033,0.977,2.747,0.916
-0.481,-0.888,0.052,-0.244,3.235,1.099
-0.474,-0.893,0.052,-0.061,1.221,1.404
-0.509,-0.871,0.054,1.038,1.343,1.160
-0.445,-0.920,0.046,1.160,0.732,0.916
-0.423,-0.908,0.040,-0.244,0.610,0.549
-0.427,-0.924,0.033,-0.854,0.244,0.671
-0.482,-0.874,0.040,-0.122,0.549,0.854
-0.483,-0.886,0.039,0.793,0.061,0.977
-0.479,-0.887,0.035,2.319,0.122,1.648
-0.490,-0.883,0.037,1.404,2.075,1.831
-0.424,-0.924,0.030,2.075,3.235,1.770
-0.456,-0.891,0.030,1.831,2.625,1.160
-0.443,-0.900,0.023,0.183,3.052,0.305
-0.508,-0.868,0.050,1.160,3.235,0.671
-0.486,-0.896,0.057,2.136,2.747,0.427
-0.476,-0.888,0.053,1.038,1.221,0.244
-0.470,-0.882,0.042,1.221,0.671,0.854
-0.426,-0.900,0.033,2.563,0.610,1.831
-0.485,-0.859,0.041,1.038,1.343,1.099
-0.478,-0.876,0.032,0.305,1.465,1.831
-0.526,-0.869,0.041,1.343,1.221,1.831
-0.496,-0.907,0.045,1.892,1.831,1.465
-0.472,-0.900,0.053,0.793,1.526,1.587
-0.472,-0.903,0.045,0.610,0.122,0.916
-0.433,-0.894,0.018,0.854,0.488,0.183
-0.497,-0.860,0.026,1.160,1.648,0.366
-0.493,-0.867,0.033,-0.122,2.625,0.549
-0.523,-0.878,0.060,0.549,2.502,0.610
-0.531,-0.868,0.053,-0.061,1.465,0.366
-0.479,-0.888,0.046,0.916,1.282,0.916
-0.476,-0.888,0.052,1.953,1.160,1.892
-0.471,-0.883,0.047,1.770,0.305,1.465
-0.475,-0.876,0.032,-0.061,0.671,0.671
-0.500,-0.881,0.037,0.244,2.625,0.671
-0.481,-0.922,0.050,0.061,1.648,-0.732
-0.485,-0.916,0.052,0.244,0.488,-0.488
-0.470,-0.891,0.037,-0.488,1.099,1.465
-0.476,-0.879,0.033,-0.793,1.587,1.831
-0.458,-0.882,0.028,-1.587,2.747,2.258
-0.500,-0.890,0.052,-1.831,1.953,1.831
-0.498,-0.846,0.053,-4.944,1.953,2.991
-0.535,-0.877,0.063,-2.441,1.892,3.052
-0.499,-0.911,0.048,-2.197,0.916,3.540
-0.471,-0.887,0.045,-1.709,2.014,5.188
-0.462,-0.885,0.071,-1.648,2.808,3.845
-0.460,-0.880,0.064,-3.906,1.221,2.441
-0.488,-0.858,0.062,-5.981,0.488,2.502
-0.512,-0.874,0.069,-5.798,2.502,3.845
-0.518,-0.876,0.072,-5.493,1.648,3.235
-0.474,-0.920,0.071,-5.859,1.282,3.845
-0.458,-0.893,0.067,-9.766,1.831,4.089

-0.466,-0.887,0.069,-10.315,2.808,5.005
-0.458,-0.898,0.078,-6.897,2.869,4.822
-0.504,-0.882,0.102,-4.150,2.075,3.296
-0.473,-0.898,0.097,-9.583,3.418,2.441
-0.410,-0.927,0.091,-11.841,4.089,1.221
-0.407,-0.908,0.100,-10.620,2.563,-0.977
-0.416,-0.922,0.115,-8.179,3.052,-0.427
-0.464,-0.911,0.130,-6.897,2.930,-0.793
-0.465,-0.897,0.117,-7.935,2.747,-2.502
-0.514,-0.868,0.125,-8.789,3.235,-3.052
-0.449,-0.859,0.117,-6.470,4.089,-4.028
-0.394,-0.876,0.123,-1.648,3.784,-3.235
-0.415,-0.912,0.127,2.014,1.465,1.648
-0.435,-0.896,0.130,2.930,3.418,3.296
-0.462,-0.898,0.143,3.540,4.456,4.333
-0.464,-0.893,0.136,1.831,2.808,3.784
-0.488,-0.883,0.130,1.221,2.441,3.906
-0.436,-0.917,0.110,2.014,2.075,2.747
-0.406,-0.906,0.107,1.770,2.380,2.197
-0.399,-0.897,0.123,-1.160,5.127,2.502
-0.457,-0.866,0.144,0.183,4.517,2.014
-0.472,-0.884,0.141,1.709,4.089,2.502
-0.447,-0.892,0.138,3.418,5.615,7.385
-0.460,-0.900,0.156,4.089,5.493,9.949
-0.432,-0.934,0.166,5.432,5.188,4.272
-0.406,-0.900,0.123,2.075,1.160,0.183
-0.415,-0.874,0.100,3.418,-0.305,1.221
-0.525,-0.827,0.125,2.075,1.160,1.648
-0.446,-0.871,0.138,1.099,1.465,-0.549
-0.456,-0.901,0.140,0.427,0.000,2.014
-0.460,-0.903,0.136,-1.160,0.488,1.099
-0.407,-0.914,0.119,-1.099,0.061,0.305
-0.406,-0.904,0.111,-0.183,0.183,0.244
-0.436,-0.874,0.132,0.061,2.563,0.854
-0.487,-0.857,0.149,0.122,3.113,1.709
-0.487,-0.878,0.145,0.793,1.526,2.136
-0.459,-0.902,0.125,0.671,1.404,1.526
-0.456,-0.903,0.118,1.831,2.930,1.892
-0.427,-0.921,0.128,1.160,2.930,1.465
-0.400,-0.908,0.130,0.549,2.319,1.099
-0.470,-0.880,0.144,0.854,0.977,0.793
-0.495,-0.872,0.151,0.366,0.000,0.122
-0.502,-0.867,0.145,-0.977,0.183,0.366
-0.455,-0.883,0.129,-2.625,0.732,-0.183
-0.456,-0.884,0.130,-4.150,1.526,-0.061
-0.455,-0.880,0.143,-3.906,1.465,1.343
-0.422,-0.878,0.141,-2.808,1.282,1.465
-0.504,-0.860,0.147,-3.906,1.404,0.549
-0.492,-0.892,0.147,-1.770,2.686,0.793
-0.504,-0.898,0.152,-0.732,2.380,1.038
-0.456,-0.906,0.142,-3.540,2.869,0.793
-0.468,-0.909,0.141,-8.545,5.005,-0.366
-0.446,-0.868,0.161,-6.653,8.301,0.122
-0.428,-0.883,0.197,-2.625,6.042,2.441
-0.443,-0.887,0.192,-2.258,0.671,2.014
-0.468,-0.885,0.156,-6.531,1.465,1.892
-0.457,-0.903,0.160,-3.174,3.052,1.099
-0.454,-0.905,0.180,-1.465,2.258,0.977
-0.453,-0.899,0.189,2.502,0.977,0.977
-0.464,-0.903,0.183,0.305,-1.038,-2.075
-0.462,-0.864,0.168,-7.263,-1.099,-4.700
-0.445,-0.872,0.172,-4.944,-0.366,-6.958
-0.451,-0.878,0.183,-2.441,0.977,-5.005
-0.468,-0.865,0.184,-6.287,0.061,-1.038
-0.468,-0.850,0.197,-16.113,2.563,-0.549
-0.452,-0.857,0.203,-13.428,3.052,1.831
-0.471,-0.874,0.209,-7.385,0.427,3.052
-0.484,-0.843,0.183,-7.935,1.282,3.235
-0.463,-0.881,0.219,-0.305,7.141,5.554
-0.454,-0.877,0.224,-5.249,6.348,3.174
-0.442,-0.849,0.214,-1.892,6.409,4.456
-0.456,-0.874,0.225,2.686,3.418,7.202
-0.457,-0.888,0.217,3.723,1.404,5.371
-0.456,-0.902,0.235,5.432,1.648,4.395
-0.449,-0.890,0.216,5.127,-0.916,-0.183
-0.432,-0.921,0.197,9.399,-1.709,-1.709
-0.441,-0.843,0.157,2.014,-1.038,-0.244
-0.465,-0.883,0.192,5.554,6.775,4.517
-0.457,-0.896,0.226,5.127,4.517,-0.488
-0.448,-0.858,0.194,3.296,1.892,-0.488
-0.449,-0.867,0.196,2.502,3.723,1.343
-0.434,-0.895,0.216,1.770,4.517,2.136
-0.416,-0.939,0.223,2.869,3.113,3.296
-0.461,-0.877,0.194,3.479,3.052,3.723
-0.450,-0.891,0.194,2.197,0.916,2.686
-0.493,-0.821,0.186,2.258,0.977,2.319
-0.463,-0.864,0.205,3.052,1.709,1.770
-0.403,-0.944,0.233,2.502,1.526,0.427
-0.418,-0.950,0.222,4.578,-1.709,-0.549
-0.428,-0.938,0.201,6.470,-0.793,-2.014
-0.494,-0.844,0.185,6.287,1.465,-5.859
-0.489,-0.823,0.162,4.211,-1.709,-7.751
-0.504,-0.830,0.164,6.592,-1.831,-6.348
-0.453,-0.921,0.197,7.874,0.671,-4.150
-0.430,-0.934,0.196,3.906,2.136,-4.944
-0.425,-0.938,0.175,2.747,-3.113,-4.761
-0.499,-0.883,0.169,4.578,0.122,-3.418
-0.513,-0.818,0.172,2.808,2.869,-3.784
-0.471,-0.835,0.172,-0.671,-14.832,-4.211
-0.482,-0.858,0.139,10.498,-2.808,-1.038

-0.480,-0.876,0.135,13.977,-0.671,0.610
-0.453,-0.873,0.161,16.113,5.249,-0.610
-0.493,-0.863,0.173,18.372,6.470,-1.465
-0.500,-0.874,0.135,14.832,-0.793,-1.648
-0.479,-0.895,0.135,20.386,0.427,-0.977
-0.508,-0.882,0.150,23.315,6.042,-2.991
-0.500,-0.857,0.140,20.630,3.479,-5.981
-0.474,-0.845,0.120,17.578,-3.357,-1.038
-0.500,-0.867,0.110,20.386,-2.625,1.648
-0.495,-0.913,0.135,20.203,-1.526,-1.221
-0.505,-0.879,0.100,14.648,-2.930,-2.991
-0.515,-0.886,0.042,10.864,-4.761,2.869
-0.516,-0.869,0.003,19.348,-1.709,6.104
-0.518,-0.863,0.003,22.339,2.991,-0.183
-0.520,-0.878,0.008,29.663,6.287,3.418
-0.496,-0.915,0.035,29.968,6.714,4.028
-0.502,-0.888,0.018,25.391,3.784,1.099
-0.464,-0.866,0.017,13.306,3.479,-1.953
-0.478,-0.844,0.010,-2.991,3.845,-1.709
-0.489,-0.869,0.011,-2.563,1.465,2.197
-0.505,-0.866,0.006,-5.310,0.977,6.104
-0.497,-0.887,0.011,-4.517,1.343,1.831
-0.504,-0.888,0.008,0.061,0.610,3.845
-0.507,-0.889,0.026,-0.183,3.906,2.869
-0.494,-0.881,0.034,-1.770,5.066,2.258
-0.466,-0.906,0.038,-1.404,3.357,2.991
-0.453,-0.966,0.034,0.732,2.319,3.052
-0.513,-0.884,0.012,2.930,1.465,1.221
-0.512,-0.890,0.010,1.953,1.953,-0.183
-0.510,-0.840,0.000,0.610,3.845,-1.343
-0.478,-0.886,0.023,-0.488,1.404,0.122
-0.475,-0.922,0.095,0.427,-8.118,1.831
-0.535,-0.901,-0.049,-0.488,1.099,1.587
-0.479,-0.904,0.014,2.441,6.714,0.793
-0.523,-0.859,-0.008,4.639,0.793,1.221
-0.502,-0.843,0.008,5.493,1.282,1.038
-0.485,-0.898,0.052,4.395,3.540,0.671
-0.494,-0.886,0.048,4.700,3.662,0.000
-0.501,-0.950,0.026,3.601,1.465,-0.977
-0.516,-0.879,-0.021,4.517,2.319,-1.038
-0.519,-0.872,-0.028,3.113,1.526,-1.282
-0.493,-0.876,-0.003,0.427,0.427,1.099
-0.495,-0.888,0.013,0.000,2.991,0.793
-0.490,-0.891,0.021,-0.122,1.404,0.305
-0.501,-0.886,0.012,1.709,1.770,0.061
-0.500,-0.886,0.008,0.000,1.160,-1.221
-0.500,-0.885,0.005,0.732,1.709,0.122
-0.498,-0.884,0.007,1.099,2.380,0.366
-0.498,-0.882,0.007,1.770,0.916,0.671
-0.473,-0.916,0.004,0.488,0.366,-0.977
-0.468,-0.888,-0.013,-0.366,1.465,-0.916
-0.515,-0.851,-0.006,0.488,2.319,1.038
-0.505,-0.888,-0.001,0.000,1.709,0.854
-0.503,-0.888,0.004,0.732,3.540,0.366
-0.500,-0.876,0.005,0.732,3.540,0.061
-0.498,-0.869,0.011,0.610,3.906,1.709
-0.495,-0.867,0.009,-0.122,3.357,3.235
-0.499,-0.880,0.011,2.319,3.601,2.441
-0.500,-0.881,0.006,1.526,2.991,1.343
-0.501,-0.881,0.013,1.465,3.296,1.648
-0.498,-0.883,0.021,2.258,3.845,2.625
-0.498,-0.879,0.012,2.808,3.174,2.380
-0.500,-0.893,0.020,2.380,2.808,-0.183
-0.500,-0.895,0.018,0.488,3.723,-1.953
-0.501,-0.888,0.017,0.305,2.197,-0.305
-0.473,-0.900,0.031,0.916,-1.221,-1.465
-0.481,-0.935,0.040,2.075,0.183,-1.282
-0.515,-0.877,-0.004,1.648,-0.305,0.000
-0.524,-0.821,-0.015,-0.305,1.526,-0.244
-0.452,-0.832,-0.008,1.648,-5.066,0.610
-0.525,-0.864,-0.038,-0.854,-0.732,1.648
-0.482,-0.918,0.020,-1.892,7.812,2.625
-0.480,-0.925,0.029,1.221,1.221,2.502
-0.495,-0.929,0.023,2.930,0.916,1.526
-0.531,-0.859,-0.008,0.000,1.709,1.343
-0.518,-0.829,0.003,1.892,2.502,1.160
-0.521,-0.827,-0.004,3.479,-1.099,1.160
-0.486,-0.879,0.001,1.038,0.671,1.038
-0.470,-0.937,0.015,-0.122,1.770,1.587
-0.469,-0.937,0.024,2.136,1.526,2.502
-0.513,-0.899,0.009,2.930,1.587,1.892
-0.531,-0.834,-0.007,2.502,2.014,0.671
-0.528,-0.834,-0.020,0.610,0.610,0.183
-0.493,-0.842,-0.007,1.648,2.502,0.122
-0.506,-0.887,0.004,2.014,1.953,0.977
-0.504,-0.881,0.000,1.770,1.099,-0.977
-0.501,-0.879,-0.000,0.488,0.610,-0.366
-0.497,-0.881,0.011,0.366,1.526,1.404
-0.501,-0.884,0.009,2.258,0.610,1.953
-0.505,-0.881,0.003,1.526,1.770,0.000
-0.499,-0.870,-0.003,0.916,1.526,0.610
-0.495,-0.880,0.007,3.357,2.380,1.343
-0.509,-0.871,-0.010,2.136,0.977,-1.343
-0.495,-0.882,-0.003,1.526,2.319,-3.723
-0.528,-0.811,-0.058,1.526,4.395,-2.441
-0.526,-0.861,-0.004,2.380,2.747,-0.610
-0.534,-0.854,-0.009,1.892,1.160,-1.099
-0.491,-0.929,0.036,1.465,1.282,-1.099
-0.482,-0.921,0.028,2.136,1.648,-0.916
-0.474,-0.922,0.031,1.221,2.991,-0.549

-0.515,-0.865,-0.012,0.916,3.418,-0.122
-0.535,-0.858,0.008,0.061,1.953,-0.183
-0.520,-0.839,-0.006,0.549,1.038,1.038
-0.512,-0.883,0.022,0.732,1.038,2.502
-0.502,-0.893,0.011,1.343,2.319,1.770
-0.510,-0.895,0.010,1.648,1.953,1.099
-0.508,-0.878,-0.017,0.977,1.709,0.244
-0.524,-0.881,-0.008,-0.793,3.113,-0.610
-0.518,-0.879,-0.001,-0.244,3.906,0.488
-0.517,-0.876,0.008,0.122,3.357,0.427
-0.516,-0.877,0.007,0.427,3.174,0.000
-0.515,-0.872,0.007,0.977,1.343,1.099
-0.513,-0.820,-0.028,2.380,0.366,2.563
-0.499,-0.890,0.020,0.854,-0.061,2.380
-0.510,-0.926,0.034,1.770,0.488,0.732
-0.519,-0.936,0.045,1.831,2.075,0.427
-0.511,-0.857,-0.002,-3.113,5.981,2.808
-0.531,-0.896,0.001,3.662,-0.427,1.221
-0.552,-0.812,-0.058,1.404,1.831,-0.671
-0.506,-0.842,-0.013,0.732,4.517,0.061
-0.513,-0.922,0.050,-0.183,2.991,-1.099
-0.475,-0.927,0.078,1.404,-0.305,0.061
-0.511,-0.934,0.023,1.770,-1.343,0.732
-0.552,-0.841,-0.063,-0.549,4.944,0.549
-0.529,-0.849,-0.017,1.221,3.967,1.709
-0.526,-0.820,-0.026,2.563,1.404,0.732
-0.505,-0.883,0.021,1.465,1.343,0.061
-0.517,-0.856,0.021,2.258,2.197,0.427
-0.518,-0.951,0.068,2.930,1.892,-1.526
-0.498,-0.892,-0.001,2.563,2.808,-0.732
-0.496,-0.855,-0.030,0.488,3.784,0.122
-0.543,-0.833,-0.008,0.183,1.404,0.000
-0.522,-0.872,0.006,1.831,2.014,1.038
-0.523,-0.867,-0.001,2.197,2.319,1.099
-0.524,-0.869,-0.002,1.465,1.526,1.404
-0.518,-0.869,-0.002,2.502,3.296,1.221
-0.519,-0.869,0.000,2.563,2.869,1.221
-0.520,-0.874,0.002,2.380,1.831,-0.061
-0.549,-0.865,-0.022,0.610,2.869,-1.343
-0.554,-0.849,0.001,0.549,2.563,-0.977
-0.537,-0.882,0.027,0.000,1.526,0.549
-0.500,-0.894,0.017,-0.061,2.075,1.221
-0.528,-0.866,0.024,0.061,0.610,1.648
-0.519,-0.854,0.000,-0.122,-0.854,1.282
-0.526,-0.858,-0.010,0.793,1.038,2.563
-0.525,-0.872,-0.001,1.404,1.770,2.380
-0.533,-0.878,-0.001,0.793,0.549,2.014
-0.530,-0.880,0.001,0.427,0.793,-1.953
-0.522,-0.869,-0.006,0.793,1.587,-0.305
-0.511,-0.897,0.019,-0.488,2.075,0.000
-0.523,-0.815,-0.048,3.174,2.197,0.732
-0.541,-0.837,-0.043,1.465,2.625,-0.488
-0.544,-0.821,-0.054,0.061,3.113,-1.648
-0.519,-0.868,0.010,2.319,3.845,-0.427
-0.524,-0.903,0.043,2.869,3.967,-0.305
-0.531,-0.917,0.038,0.732,3.418,-0.549
-0.533,-0.901,0.020,0.122,3.418,-0.122
-0.528,-0.833,-0.030,2.197,2.502,0.610
-0.517,-0.819,-0.056,1.282,1.404,0.366
-0.529,-0.812,-0.036,-0.061,1.648,1.587
-0.508,-0.896,0.029,-0.183,2.380,2.441
-0.526,-0.919,0.039,-0.366,2.136,2.380
-0.532,-0.904,0.045,1.160,3.357,2.441
-0.537,-0.860,0.002,1.526,1.953,3.723
-0.516,-0.836,-0.036,0.732,0.916,3.662
-0.518,-0.874,0.006,0.305,1.221,2.258
-0.515,-0.868,0.006,0.122,2.686,1.526
-0.534,-0.902,0.055,-0.366,1.465,1.587
-0.535,-0.884,0.032,15.381,-1.587,3.845
-0.520,-0.867,0.037,-0.427,-1.709,4.761
-0.512,-0.850,0.002,-1.099,-0.244,4.395
-0.508,-0.855,-0.006,-0.671,-0.061,3.174
-0.540,-0.874,-0.017,-2.319,-1.831,5.676
-0.510,-0.857,-0.037,-4.028,-0.732,1.526
-0.514,-0.859,-0.010,-4.700,3.662,4.089
-0.533,-0.836,-0.001,-4.639,4.517,3.357
-0.575,-0.850,0.024,-1.099,2.869,3.357
-0.533,-0.906,0.028,-0.671,4.578,1.221
-0.526,-0.882,0.039,-1.465,3.113,1.343
-0.464,-0.899,0.012,-0.916,1.892,1.221
-0.480,-0.854,0.000,-0.610,1.709,2.380
-0.530,-0.874,0.032,0.366,2.075,3.052
-0.507,-0.918,0.068,-0.183,3.723,0.977
-0.469,-0.953,0.035,0.610,1.587,-0.122
-0.500,-0.885,-0.010,0.061,0.549,-0.610
-0.492,-0.908,0.010,0.244,3.296,-0.916
-0.542,-0.773,0.000,0.000,1.770,-0.122
-0.543,-0.821,0.041,-1.038,1.831,0.793
-0.526,-0.816,0.037,-1.465,1.526,1.038
-0.503,-0.935,0.050,-0.122,1.038,2.197
-0.506,-0.902,0.032,1.709,1.221,2.747
-0.520,-0.879,0.025,1.831,0.488,2.686
-0.506,-0.862,0.003,0.549,-0.610,2.686
-0.524,-0.887,0.013,3.418,1.770,4.395
-0.529,-0.895,0.031,4.578,4.761,2.686
-0.505,-0.887,0.041,0.000,2.075,0.793
-0.462,-0.884,-0.004,1.587,-0.854,0.488
-0.520,-0.838,0.005,0.977,0.488,1.404
-0.544,-0.846,0.037,-0.549,2.075,1.404
-0.500,-0.896,0.036,-0.488,3.235,1.282

-0.505,-0.891,0.038,0.916,2.258,1.770
-0.475,-0.893,0.019,0.488,1.038,1.465
-0.510,-0.869,0.016,-0.732,1.526,1.099
-0.508,-0.868,0.019,-0.427,1.648,0.549
-0.535,-0.846,0.017,1.099,0.244,0.366
-0.519,-0.893,0.019,0.305,2.930,0.244
-0.506,-0.889,0.041,0.305,3.113,-0.977
-0.484,-0.907,0.032,0.183,1.465,-0.122
-0.501,-0.900,0.021,0.122,0.549,0.793
-0.470,-0.897,0.011,1.648,2.136,0.854
-0.514,-0.849,0.020,-0.854,3.906,-0.122
-0.559,-0.838,0.041,-0.305,3.723,0.854
-0.562,-0.832,0.038,1.038,1.282,1.831
-0.519,-0.869,0.031,0.427,1.099,1.526
-0.505,-0.869,0.028,0.793,1.831,1.465
-0.509,-0.869,0.022,3.601,0.427,3.113
-0.506,-0.867,0.014,5.371,1.099,2.991
-0.505,-0.886,0.027,4.028,4.272,3.418
-0.499,-0.877,0.027,3.662,2.747,2.136
-0.523,-0.863,0.021,1.038,0.793,2.747
-0.558,-0.871,0.024,0.427,0.366,-0.244
-0.573,-0.867,0.042,-1.770,3.357,-1.831
-0.532,-0.901,0.038,-1.160,1.831,-2.625
-0.467,-0.900,0.015,1.709,0.793,-2.197
-0.497,-0.845,0.020,0.366,2.625,-1.831
-0.499,-0.842,0.010,1.282,1.770,0.732
-0.540,-0.842,0.015,1.282,2.319,2.136
-0.538,-0.876,0.024,2.258,4.517,2.075
-0.493,-0.916,0.012,7.629,4.456,0.183
-0.498,-0.901,0.020,6.348,3.723,-0.061
-0.465,-0.890,0.012,3.113,2.319,-0.244
-0.536,-0.845,0.024,3.723,2.625,0.366
-0.527,-0.830,0.015,0.854,2.014,0.366
-0.555,-0.835,0.021,1.465,1.953,0.977
-0.529,-0.895,0.023,3.357,1.648,2.441
-0.545,-0.891,0.029,5.005,2.808,1.038
-0.470,-0.893,0.003,3.418,3.479,-0.122
-0.508,-0.864,0.011,4.639,3.723,1.770
-0.510,-0.868,0.008,4.761,2.625,2.441
-0.517,-0.871,0.009,2.991,2.014,2.136
-0.520,-0.884,0.018,2.319,2.930,1.892
-0.517,-0.880,0.016,0.488,2.258,1.282
-0.529,-0.880,0.013,0.671,3.113,0.488
-0.524,-0.880,0.010,0.061,2.625,-0.610
-0.513,-0.871,0.003,1.038,0.366,0.427
-0.501,-0.828,0.065,1.404,0.793,0.488
-0.506,-0.851,0.025,0.000,-3.662,1.099
-0.517,-0.853,-0.050,-2.502,3.418,1.282
-0.503,-0.867,-0.006,0.610,6.653,3.357
-0.512,-0.882,0.022,3.113,5.005,3.906
-0.521,-0.893,0.026,2.502,2.258,3.601
-0.522,-0.886,0.018,-0.488,3.296,0.305
-0.512,-0.880,0.015,0.549,1.404,0.000
-0.516,-0.870,0.007,1.099,1.465,-0.122
-0.512,-0.866,0.012,2.197,0.916,0.854
-0.511,-0.866,0.009,1.404,0.183,1.160
-0.509,-0.866,0.013,1.648,0.061,2.014
-0.507,-0.872,0.018,1.892,1.343,2.197
-0.515,-0.877,0.008,1.465,1.160,1.892
-0.487,-0.913,0.003,-0.488,1.892,0.488
-0.492,-0.902,0.008,1.770,2.869,0.854
-0.524,-0.877,0.000,2.808,2.380,-0.549
-0.522,-0.858,0.001,0.671,1.587,-1.953
-0.540,-0.856,0.017,0.916,2.075,-1.038
-0.553,-0.837,0.018,0.671,1.160,0.122
-0.523,-0.870,0.019,0.122,0.610,0.854
-0.525,-0.880,0.010,-0.305,0.854,1.099
-0.517,-0.873,0.013,-1.587,2.930,0.244
-0.516,-0.864,0.005,-1.099,2.197,0.488
-0.547,-0.855,0.025,-0.183,1.465,1.465
-0.478,-0.897,0.004,-1.526,1.099,0.977
-0.488,-0.860,0.029,-2.930,2.930,1.282
-0.526,-0.860,0.012,-0.732,1.465,0.671
-0.534,-0.898,0.025,-2.258,1.770,-2.808
-0.525,-0.845,0.015,-6.775,5.432,-1.160
-0.542,-0.871,0.060,-0.427,3.235,0.366
-0.523,-0.887,0.033,-2.075,-1.709,-0.916
-0.531,-0.859,0.028,-10.315,1.343,-1.770
-0.489,-0.851,0.029,-9.583,2.380,1.343
-0.534,-0.840,0.053,-10.620,0.366,4.395
-0.512,-0.838,0.054,-17.456,-0.916,2.625
-0.546,-0.830,0.072,-21.179,0.916,2.014
-0.530,-0.860,0.067,-15.442,-0.366,2.869
-0.546,-0.885,0.055,-7.202,-2.563,4.211
-0.535,-0.892,0.056,-4.272,-0.854,3.113
-0.508,-0.881,0.082,-4.944,1.831,1.709
-0.495,-0.876,0.086,-9.583,1.587,0.671
-0.505,-0.875,0.081,-11.902,1.892,1.404
-0.523,-0.859,0.077,-11.230,3.601,1.282
-0.519,-0.870,0.105,-6.592,5.310,0.916
-0.511,-0.864,0.116,-2.747,3.906,0.427
-0.527,-0.845,0.110,-2.075,1.709,1.038
-0.508,-0.839,0.124,1.831,2.197,2.441
-0.524,-0.874,0.131,10.742,0.244,-1.282
-0.526,-0.842,0.097,7.446,2.808,-1.587
-0.515,-0.853,0.104,3.235,2.747,0.549
-0.520,-0.862,0.095,4.028,0.488,3.418
-0.522,-0.859,0.081,4.578,-0.854,4.822
-0.527,-0.861,0.081,4.456,1.282,1.953
-0.501,-0.887,0.078,5.066,2.502,1.648

-0.540,-0.861,0.066,5.310,0.916,-1.038
-0.514,-0.889,0.064,0.610,3.967,1.770
-0.526,-0.877,0.123,5.127,8.301,-14.648
-0.510,-0.841,0.113,1.648,3.418,0.244
-0.512,-0.842,0.087,-0.732,-0.305,1.648
-0.516,-0.820,0.078,-0.854,0.793,2.686
-0.485,-0.907,0.097,-1.709,1.709,2.319
-0.507,-0.897,0.097,0.671,1.953,2.319
-0.519,-0.887,0.097,1.404,1.038,1.282
-0.545,-0.848,0.074,0.977,2.563,0.000
-0.492,-0.855,0.089,0.610,1.465,0.366
-0.490,-0.891,0.073,1.038,-0.305,-0.366
-0.506,-0.895,0.093,1.770,2.075,-0.305
-0.477,-0.913,0.102,1.770,1.953,-0.122
-0.519,-0.906,0.109,0.366,1.404,-0.488
-0.516,-0.856,0.085,-3.235,1.648,-0.427
-0.549,-0.834,0.079,-1.953,0.366,-0.488
-0.526,-0.855,0.098,0.549,1.709,-0.183
-0.546,-0.828,0.095,-0.366,1.831,0.000
-0.494,-0.896,0.125,0.061,2.136,0.977
-0.502,-0.891,0.114,0.244,2.197,1.343
-0.488,-0.889,0.109,0.793,2.014,1.953
-0.515,-0.861,0.101,1.404,2.319,1.648
-0.521,-0.865,0.092,-0.916,0.610,1.343
-0.524,-0.869,0.093,0.122,0.488,1.160
-0.527,-0.857,0.091,1.587,1.587,0.305
-0.526,-0.865,0.096,3.845,-0.549,0.732
-0.531,-0.870,0.084,5.493,-0.793,0.854
-0.523,-0.848,0.073,7.263,0.427,-1.404
-0.524,-0.860,0.079,6.897,1.160,-1.587
-0.521,-0.863,0.078,5.310,1.526,-1.038
-0.554,-0.870,0.092,4.333,3.052,-0.793
-0.549,-0.863,0.095,2.136,2.686,-0.854
-0.553,-0.810,0.061,0.610,1.465,0.000
-0.522,-0.831,0.073,1.038,1.160,1.831
-0.495,-0.880,0.099,1.770,2.563,2.991
-0.489,-0.885,0.098,1.282,1.404,1.892
-0.522,-0.898,0.079,0.366,1.343,3.235
-0.564,-0.844,0.067,0.000,3.845,3.540
-0.551,-0.828,0.081,2.747,3.662,2.380
-0.542,-0.869,0.072,2.686,1.038,0.610
-0.529,-0.880,0.077,2.808,3.601,1.709
-0.525,-0.868,0.080,0.854,1.343,0.977
-0.522,-0.867,0.082,0.916,0.183,-0.854
-0.516,-0.859,0.082,0.793,1.892,-1.038
-0.521,-0.844,0.074,3.601,1.709,0.183
-0.532,-0.848,0.063,2.075,-0.061,2.380
-0.519,-0.875,0.071,0.366,3.235,1.831
-0.525,-0.876,0.068,1.465,1.587,6.531
-0.574,-0.802,0.033,-0.183,1.709,10.498
-0.547,-0.792,0.049,2.075,5.310,5.127
-0.536,-0.829,0.077,7.874,4.700,4.700
-0.517,-0.902,0.104,6.409,2.258,-1.221
-0.527,-0.907,0.098,-1.953,3.113,-6.042
-0.506,-0.883,0.088,-1.648,3.601,1.282
-0.513,-0.834,0.061,1.587,3.113,5.615
-0.521,-0.834,0.069,1.282,1.465,-14.709
-0.518,-0.827,0.063,1.343,1.404,0.671
-0.508,-0.871,0.081,1.160,0.732,0.305
-0.514,-0.888,0.082,2.625,1.587,-2.747
-0.517,-0.887,0.109,1.892,3.906,-2.808
-0.525,-0.855,0.072,0.488,3.418,-2.502
-0.538,-0.841,0.028,-0.916,0.732,-1.770
-0.539,-0.839,0.070,5.249,-5.554,0.488
-0.584,-0.870,0.006,-0.366,-1.099,4.211
-0.528,-0.871,0.042,-0.854,7.690,2.197
-0.528,-0.875,0.085,2.197,4.517,2.136
-0.504,-0.858,0.068,1.160,1.038,1.709
-0.500,-0.848,0.069,1.221,3.784,3.113
-0.490,-0.830,0.081,0.732,4.150,1.099
-0.519,-0.838,0.103,2.380,0.183,1.343
-0.521,-0.839,0.076,2.136,-0.427,1.038
-0.574,-0.850,0.069,2.075,-0.916,0.793
-0.539,-0.857,0.060,2.502,1.160,1.648
-0.513,-0.863,0.063,4.333,3.296,2.930
-0.533,-0.870,0.061,3.540,2.563,-3.723
-0.516,-0.856,0.046,5.066,0.793,-4.700
-0.535,-0.888,0.080,7.141,0.488,0.244
-0.521,-0.893,0.090,3.357,2.380,-2.136
-0.536,-0.891,0.094,-0.366,2.319,-1.343
-0.516,-0.888,0.082,-0.977,2.808,1.465
-0.524,-0.860,0.069,1.953,0.305,0.793
-0.531,-0.851,0.059,1.221,-0.122,1.282
-0.538,-0.817,0.039,1.343,1.099,1.831
-0.531,-0.836,0.052,0.244,1.160,2.502
-0.553,-0.856,0.071,2.380,1.587,2.625
-0.528,-0.871,0.077,4.089,0.061,2.197
-0.535,-0.878,0.084,2.380,-0.244,2.502
-0.522,-0.827,0.029,0.549,-0.854,1.343
-0.515,-0.901,0.091,0.977,-0.061,3.296
-0.500,-0.872,0.077,0.977,1.404,2.869
-0.535,-0.904,0.094,1.038,2.380,0.854
-0.523,-0.871,0.053,0.244,1.587,0.793
-0.519,-0.889,0.063,1.038,1.099,4.456
-0.518,-0.840,0.022,0.610,-0.793,3.967
-0.525,-0.852,0.045,1.282,-1.587,4.639
-0.518,-0.896,0.077,2.686,2.014,3.235
-0.525,-0.882,0.054,0.793,2.747,-0.122
-0.538,-0.902,0.070,0.427,2.930,0.427
-0.553,-0.867,0.047,0.061,3.906,0.244

-0.495,-0.836,0.039,-0.671,1.099,0.916
-0.511,-0.837,0.059,-0.244,1.587,2.991
-0.521,-0.879,0.068,-0.244,1.404,3.967
-0.520,-0.928,0.078,0.916,3.601,2.808
-0.540,-0.876,0.040,1.404,4.150,1.038
-0.539,-0.842,0.038,3.540,1.038,2.014
-0.525,-0.854,0.036,2.563,-0.610,2.258
-0.500,-0.871,0.046,1.770,0.366,2.197
-0.516,-0.836,0.064,3.052,4.395,2.380
-0.535,-0.861,0.083,1.404,2.319,0.977
-0.518,-0.863,0.052,1.038,1.648,0.427
-0.511,-0.868,0.053,3.357,2.563,1.404
-0.453,-0.846,0.150,5.676,0.732,1.404
-0.504,-0.835,0.055,2.869,-6.958,4.944
-0.562,-0.857,-0.044,-2.930,3.601,2.197
-0.504,-0.842,0.015,0.793,9.216,3.540
-0.553,-0.929,0.077,4.150,3.784,3.174
-0.525,-0.846,0.021,2.991,1.709,0.488
-0.521,-0.861,0.026,1.709,4.211,-0.610
-0.497,-0.863,0.042,2.380,3.418,-0.732
-0.500,-0.902,0.074,2.441,1.221,-2.563
-0.512,-0.892,0.058,2.014,2.869,-0.977
-0.490,-0.901,0.088,-0.366,3.723,1.953
-0.521,-0.864,0.060,-0.061,2.380,2.747
-0.540,-0.836,0.036,0.977,0.000,3.296
-0.517,-0.859,0.041,-0.488,-0.671,0.183
-0.508,-0.857,0.037,0.244,2.625,1.160
-0.514,-0.867,0.036,1.709,0.854,2.747
-0.515,-0.874,0.045,2.075,2.625,2.930
-0.508,-0.882,0.056,3.357,3.784,2.258
-0.509,-0.872,0.036,1.953,1.221,2.197
-0.520,-0.871,0.036,2.930,2.014,2.075
-0.525,-0.874,0.037,2.563,3.113,-0.183
-0.505,-0.876,0.044,1.465,4.395,-2.197
-0.507,-0.870,0.047,3.723,4.395,0.061
-0.520,-0.893,0.071,2.930,3.784,-0.977
-0.528,-0.901,0.069,1.831,3.540,-2.075
-0.513,-0.899,0.081,1.831,4.272,0.427
-0.537,-0.831,0.024,0.427,1.587,0.610
-0.527,-0.810,0.018,1.099,0.366,0.671
-0.499,-0.889,0.077,1.282,0.000,1.404
-0.501,-0.885,0.056,2.319,0.000,0.854
-0.503,-0.923,0.073,2.869,0.122,-0.366
-0.524,-0.877,0.026,1.465,1.221,-1.709
-0.528,-0.887,0.036,0.427,1.404,0.916
-0.511,-0.835,-0.008,0.610,1.160,2.136
-0.506,-0.862,0.035,0.610,0.977,2.747
-0.518,-0.902,0.075,0.671,2.014,3.113
-0.510,-0.881,0.071,0.793,3.357,3.906
-0.524,-0.897,0.067,2.258,0.977,2.869
-0.539,-0.864,0.025,1.404,0.977,1.648
-0.510,-0.825,0.016,1.221,3.052,1.770
-0.516,-0.835,0.026,5.798,3.601,1.526
-0.500,-0.861,0.043,3.540,1.709,0.671
-0.511,-0.870,0.052,3.418,0.366,1.221
-0.519,-0.880,0.041,2.747,1.770,0.916
-0.512,-0.870,0.028,2.625,2.930,0.793
-0.515,-0.869,0.024,6.409,1.648,1.709
-0.518,-0.877,0.027,5.371,3.601,1.953
-0.506,-0.884,0.037,3.052,3.174,0.061
-0.500,-0.875,0.026,2.380,2.747,-0.854
-0.486,-0.866,0.019,3.540,1.038,1.221
-0.515,-0.870,0.020,2.441,3.174,2.747
-0.556,-0.872,0.021,1.343,5.310,3.296
-0.550,-0.870,0.014,5.737,2.869,2.319
-0.512,-0.855,0.027,10.498,4.456,-2.319
-0.498,-0.854,0.051,15.686,3.601,0.793
-0.485,-0.869,0.064,8.789,2.014,0.366
-0.507,-0.880,0.034,4.944,1.160,-0.610
-0.520,-0.888,0.021,4.089,2.136,-0.549
-0.535,-0.876,0.006,-0.732,2.991,-1.831
-0.534,-0.885,-0.025,2.441,0.732,-2.686
-0.515,-0.880,-0.023,3.357,1.343,0.916
-0.484,-0.904,0.019,4.089,2.136,1.099
-0.481,-0.890,0.043,3.113,2.441,0.305
-0.490,-0.913,0.042,0.366,0.305,-0.305
-0.532,-0.847,0.018,-2.563,2.258,1.038
-0.519,-0.863,0.038,-4.333,2.869,2.441
-0.505,-0.836,0.004,-3.662,0.610,3.357
-0.505,-0.838,-0.006,-0.793,-1.221,4.395
-0.528,-0.862,0.007,0.366,0.488,6.897
-0.492,-0.919,0.029,0.305,0.000,8.179
-0.543,-0.900,0.018,5.615,-0.122,26.062
-0.500,-0.858,-0.034,5.371,0.671,14.526
-0.497,-0.853,-0.023,5.432,1.526,6.592
-0.532,-0.817,-0.021,4.761,3.967,4.822
-0.477,-0.917,0.013,2.502,5.798,5.493
-0.412,-0.958,0.032,0.366,6.531,5.127
-0.431,-0.949,0.030,1.099,2.197,1.953
-0.470,-0.920,0.010,1.282,1.953,0.977
-0.527,-0.841,-0.006,0.366,2.075,-0.183
-0.519,-0.856,0.008,1.282,1.587,-0.488
-0.507,-0.850,-0.003,2.014,1.221,-0.122
-0.437,-0.921,0.011,2.930,2.319,0.427
-0.472,-0.908,0.002,3.784,2.869,2.075
-0.487,-0.903,0.009,2.869,2.991,1.404
-0.477,-0.896,0.065,3.906,0.122,0.549
-0.499,-0.894,-0.005,2.625,-5.615,0.061
-0.499,-0.872,-0.071,1.099,2.747,-0.549
-0.468,-0.877,-0.007,1.892,7.507,0.793

-0.484,-0.882,0.017,3.784,0.305,3.784
-0.478,-0.895,0.010,2.563,1.160,3.662
-0.498,-0.891,-0.001,2.502,1.526,-1.526
-0.455,-0.918,-0.020,3.174,1.282,-1.770
-0.461,-0.916,-0.012,3.052,1.587,-0.671
-0.470,-0.882,-0.012,4.944,3.052,-0.183
-0.512,-0.908,0.040,4.028,1.831,-4.944
-0.497,-0.894,0.019,4.211,0.488,-3.845
-0.524,-0.930,-0.008,3.235,1.892,-2.502
-0.492,-0.882,-0.038,3.174,4.395,-2.869
-0.480,-0.887,-0.022,1.160,4.883,-3.601
-0.468,-0.851,-0.028,-1.404,4.272,-2.869
-0.486,-0.883,0.017,-1.770,0.793,-1.099
-0.485,-0.872,-0.008,-3.723,0.122,0.000
-0.519,-0.942,0.021,-1.038,1.221,0.977
-0.523,-0.914,0.001,0.854,2.197,1.160
-0.477,-0.920,0.008,1.526,-0.549,-0.122
-0.479,-0.859,-0.029,1.953,-1.038,0.122
-0.473,-0.856,-0.028,0.244,1.709,0.000
-0.512,-0.836,-0.014,1.648,1.587,0.427
-0.521,-0.878,0.013,-1.648,-0.061,1.099
-0.486,-0.897,-0.001,-3.540,1.099,1.404
-0.511,-0.920,0.011,-1.465,1.953,1.465
-0.487,-0.910,-0.018,-3.723,2.441,0.122
-0.511,-0.863,-0.029,-3.479,3.174,-0.732
-0.501,-0.856,0.002,-5.554,2.747,0.916
-0.538,-0.852,0.007,-9.338,3.601,2.869
-0.494,-0.862,0.015,-7.446,0.977,4.211
-0.468,-0.908,0.031,-1.221,-2.441,2.869
-0.490,-0.920,0.024,-2.502,0.793,-0.122
-0.482,-0.897,0.021,-8.728,4.517,-0.427
-0.527,-0.835,0.024,-10.620,5.615,2.808
-0.562,-0.818,0.045,-9.521,2.563,1.282
-0.564,-0.821,0.042,-2.869,0.061,2.441
-0.531,-0.898,0.058,-3.235,-0.488,1.770
-0.445,-0.927,0.037,-4.150,-1.099,1.709
-0.481,-0.881,0.034,-2.563,1.404,3.296
-0.458,-0.887,0.038,-3.845,1.465,1.892
-0.534,-0.861,0.014,-4.395,0.244,2.808
-0.553,-0.831,0.019,-5.005,0.977,2.319
-0.511,-0.828,0.022,-3.479,1.709,-0.488
-0.496,-0.856,0.047,-4.211,4.639,-1.160
-0.458,-0.932,0.084,0.183,2.991,1.770
-0.494,-0.890,0.062,0.366,2.197,2.747
-0.475,-0.900,0.069,-0.793,4.028,2.258
-0.517,-0.819,0.052,3.235,3.174,2.441
-0.524,-0.835,0.062,4.517,0.671,2.930
-0.540,-0.829,0.042,0.610,2.197,2.136
-0.498,-0.872,0.051,-0.793,1.587,2.563
-0.495,-0.866,0.045,1.160,1.282,3.296
-0.495,-0.852,0.024,-2.075,0.061,2.563
-0.494,-0.880,0.030,-3.174,3.235,3.662
-0.501,-0.915,0.068,0.977,7.080,7.324
-0.485,-0.900,0.102,3.296,4.089,2.319
-0.494,-0.890,0.061,2.441,0.061,0.671
-0.490,-0.882,0.046,4.089,-0.488,0.793
-0.485,-0.866,0.051,2.869,1.526,1.038
-0.491,-0.876,0.049,2.869,1.282,1.831
-0.493,-0.885,0.050,2.197,1.282,1.587
-0.485,-0.884,0.047,2.380,2.625,1.953
-0.480,-0.884,0.050,3.357,2.869,2.441
-0.485,-0.892,0.059,2.808,3.052,2.136
-0.488,-0.888,0.051,0.244,2.014,1.038
-0.503,-0.898,0.048,15.259,1.770,0.061
-0.482,-0.902,0.046,1.709,2.747,-0.305
-0.483,-0.891,0.044,2.258,2.441,-1.709
-0.485,-0.880,0.033,2.014,0.916,0.977
-0.480,-0.891,0.046,3.296,2.075,1.648
-0.485,-0.894,0.053,4.395,2.930,1.831
-0.494,-0.891,0.054,5.493,3.174,1.038
-0.506,-0.883,0.044,3.357,2.075,0.427
-0.492,-0.876,0.035,0.610,2.319,0.244
-0.482,-0.877,0.044,1.831,4.211,1.038
-0.490,-0.873,0.055,2.563,5.493,1.953
-0.481,-0.869,0.056,1.221,3.601,2.075
-0.482,-0.878,0.046,0.488,0.793,2.869
-0.487,-0.897,0.045,0.671,2.136,2.625
-0.494,-0.903,0.054,1.282,2.869,2.136
-0.491,-0.903,0.050,-0.061,1.892,-1.099
-0.496,-0.894,0.032,1.343,-1.160,-1.526
-0.492,-0.899,0.028,0.977,0.061,0.427
-0.476,-0.895,0.043,4.822,1.038,-0.732
-0.496,-0.881,0.043,3.906,0.977,-1.404
-0.503,-0.884,0.046,-1.282,1.709,-1.343
-0.488,-0.879,0.045,-3.479,1.770,-2.136
-0.491,-0.876,0.053,1.953,0.549,0.061
-0.491,-0.872,0.050,1.526,1.465,0.061
-0.496,-0.876,0.043,1.282,1.465,0.366
-0.499,-0.880,0.047,0.366,1.648,1.404
-0.505,-0.881,0.049,0.183,2.197,0.916
-0.500,-0.880,0.041,1.038,0.916,1.343
-0.497,-0.877,0.035,1.038,1.038,1.587
-0.486,-0.881,0.035,0.366,1.648,1.404
-0.493,-0.884,0.043,0.549,1.770,1.709
-0.499,-0.889,0.050,1.038,1.709,1.648
-0.497,-0.884,0.048,-0.061,2.441,0.488
-0.496,-0.880,0.042,0.732,1.709,1.343
-0.505,-0.878,0.039,1.831,1.160,0.732
-0.496,-0.879,0.042,1.404,0.122,1.282
-0.495,-0.878,0.037,2.075,-0.183,2.258

-0.500,-0.885,0.037,1.892,0.000,3.174
-0.480,-0.884,0.052,2.136,3.174,2.075
-0.491,-0.878,0.058,1.770,2.869,-0.977
