aX,aY,aZ,gX,gY,gZ
-0.191,0.023,0.953,-0.427,1.038,-0.061
-0.188,0.026,0.954,-0.916,1.221,0.183
-0.158,0.029,0.954,-0.549,1.648,-0.183
-0.184,0.024,0.951,-0.793,1.770,0.366
-0.183,0.021,0.953,-1.465,1.892,-0.366
-0.187,0.026,0.953,-2.319,1.404,-0.854
-0.188,0.040,0.951,-3.174,1.587,0.122
-0.182,0.057,0.951,-1.953,1.587,0.427
-0.157,0.052,1.001,-4.639,1.221,3.723
-0.165,0.018,0.966,6.897,0.732,1.953
-0.197,0.050,0.937,-1.282,1.160,1.160
-0.187,0.024,0.956,1.709,1.465,0.549
-0.200,0.039,0.950,1.221,0.366,0.183
-0.198,0.046,0.946,-2.136,1.099,1.587
-0.179,0.030,0.962,-0.183,2.258,2.197
-0.182,0.037,0.949,-0.793,0.244,0.122
-0.192,0.047,0.953,-2.014,1.099,0.244
-0.195,0.050,0.951,-1.160,1.282,0.549
-0.195,0.056,0.950,-0.977,1.648,2.197
-0.192,0.049,0.962,0.916,2.319,1.465
-0.188,0.047,0.949,1.770,1.953,1.221
-0.185,0.044,0.952,0.427,2.258,1.526
-0.183,0.047,0.958,-0.366,1.892,1.526
-0.182,0.054,0.958,0.244,1.648,1.282
-0.182,0.053,0.956,0.854,1.404,1.465
-0.187,0.052,0.954,1.465,1.282,1.160
-0.191,0.048,0.953,1.892,1.587,1.160
-0.194,0.047,0.952,0.854,1.221,1.526
-0.193,0.047,0.952,0.916,1.648,1.160
-0.191,0.045,0.954,1.160,1.831,1.160
-0.190,0.047,0.951,0.244,1.709,1.221
-0.188,0.048,0.956,0.244,2.014,1.099
-0.187,0.051,0.956,0.610,1.770,0.854
-0.188,0.049,0.952,1.099,1.953,1.099
-0.189,0.047,0.954,0.854,1.709,0.916
-0.189,0.050,0.951,0.793,1.587,0.854
-0.187,0.053,0.956,0.610,1.709,1.282
-0.186,0.054,0.956,1.038,1.465,1.404
-0.185,0.052,0.957,1.282,1.587,1.953
-0.188,0.045,0.950,1.892,1.587,1.526
-0.194,0.042,0.953,1.526,2.075,1.160
-0.196,0.043,0.952,0.488,1.526,1.160
-0.196,0.050,0.950,0.183,1.587,1.038
-0.190,0.055,0.955,-0.061,2.014,1.587
-0.185,0.055,0.958,0.427,2.014,1.831
-0.186,0.049,0.955,1.709,2.075,1.343
-0.187,0.053,0.954,1.343,1.831,1.282
-0.189,0.060,0.956,0.732,1.526,1.953
-0.189,0.061,0.960,1.648,1.892,2.441
-0.190,0.059,0.956,3.174,2.014,2.502
-0.192,0.049,0.950,3.906,1.953,3.235
-0.187,0.030,0.952,3.418,2.014,3.174
-0.182,0.022,0.953,2.502,1.465,1.953
-0.182,0.028,0.951,1.831,1.099,0.549
-0.187,0.042,0.952,0.793,0.916,-0.671
-0.202,0.055,0.953,0.854,1.160,-0.427
-0.203,0.054,0.950,2.197,2.197,0.671
-0.195,0.040,0.951,2.258,2.747,1.648
-0.189,0.029,0.950,1.404,2.808,1.282
-0.186,0.031,0.956,0.000,2.502,0.244
-0.184,0.044,0.955,0.305,2.197,-0.122
-0.184,0.057,0.952,0.000,2.197,0.000
-0.183,0.056,0.958,-0.061,2.136,0.916
-0.181,0.048,0.956,0.366,1.648,1.526
-0.184,0.047,0.959,0.671,1.709,1.282
-0.188,0.049,0.954,0.671,0.854,1.587
-0.188,0.051,0.954,0.427,1.038,2.075
-0.189,0.050,0.955,0.793,1.099,2.258
-0.190,0.047,0.955,1.709,0.916,2.319
-0.191,0.042,0.951,2.441,1.221,2.441
-0.191,0.036,0.950,2.197,1.282,1.953
-0.193,0.034,0.948,1.648,1.587,1.099
-0.195,0.036,0.951,0.549,1.404,-0.061
-0.195,0.041,0.952,0.183,1.648,0.000
-0.191,0.044,0.955,0.000,1.709,-0.122
-0.191,0.048,0.955,0.610,2.197,-0.549
-0.194,0.053,0.955,1.282,2.319,-0.549
-0.193,0.056,0.955,1.526,1.831,0.977

-0.186,0.049,0.951,1.770,2.136,2.014
-0.179,0.040,0.958,1.465,2.136,1.587
-0.181,0.036,0.956,0.732,1.221,1.038
-0.187,0.041,0.953,0.122,0.793,0.732
-0.196,0.048,0.950,0.061,0.854,0.305
-0.202,0.055,0.950,0.610,1.770,0.916
-0.199,0.053,0.953,1.465,1.831,2.258
-0.193,0.046,0.950,1.526,2.197,2.563
-0.188,0.036,0.953,1.465,2.319,1.648
-0.186,0.033,0.954,0.671,1.953,0.427
-0.188,0.041,0.955,0.122,1.404,-0.122
-0.188,0.048,0.954,-0.244,0.977,-0.305
-0.191,0.056,0.957,0.427,1.343,0.000
-0.192,0.054,0.950,0.977,1.526,0.671
-0.192,0.049,0.953,1.282,2.075,1.526
-0.191,0.048,0.953,0.671,1.343,1.648
-0.192,0.049,0.952,0.793,1.526,1.648
-0.192,0.048,0.952,1.038,1.648,1.892
-0.193,0.050,0.956,1.282,1.953,1.587
-0.190,0.044,0.951,0.854,0.793,1.892
-0.189,0.044,0.950,1.160,1.770,1.221
-0.193,0.046,0.958,1.343,1.953,0.549
-0.194,0.050,0.949,1.404,1.282,0.916
-0.195,0.048,0.953,1.160,2.441,0.854
-0.194,0.047,0.952,0.916,1.770,1.343
-0.190,0.046,0.952,0.854,2.075,1.404
-0.187,0.045,0.956,0.549,1.587,1.160
-0.191,0.047,0.953,0.610,1.343,0.793
-0.192,0.050,0.955,0.366,1.343,0.916
-0.196,0.052,0.954,0.549,1.587,1.343
-0.195,0.053,0.952,0.488,1.526,1.343
-0.197,0.054,0.953,1.282,2.014,1.587
-0.195,0.045,0.952,2.075,2.258,1.953
-0.190,0.040,0.951,1.892,2.075,1.587
-0.186,0.037,0.955,1.465,2.258,0.610
-0.188,0.042,0.952,0.366,1.343,0.000
-0.193,0.055,0.958,0.122,1.465,-0.244
-0.196,0.059,0.951,0.610,1.526,0.732
-0.195,0.057,0.951,1.160,2.014,1.648
-0.193,0.048,0.958,1.831,2.319,2.136
-0.187,0.042,0.952,0.854,1.587,2.441
-0.184,0.040,0.955,0.000,1.648,1.648
-0.191,0.049,0.954,0.122,1.404,0.854
-0.197,0.056,0.953,0.732,1.404,0.916
-0.200,0.055,0.951,1.160,1.648,1.587
-0.200,0.050,0.953,1.404,2.075,1.892
-0.194,0.046,0.952,1.587,2.136,1.831
-0.189,0.043,0.954,1.953,2.563,1.160
-0.187,0.042,0.957,1.038,2.075,0.183
-0.188,0.047,0.955,0.427,1.526,-0.061
-0.190,0.049,0.955,0.610,1.526,0.000
-0.191,0.054,0.954,0.488,1.465,0.244
-0.192,0.054,0.954,0.488,1.282,1.221
-0.192,0.051,0.952,0.854,1.221,1.343
-0.196,0.052,0.953,1.221,1.465,1.282
-0.201,0.052,0.951,1.587,1.587,1.709
-0.199,0.047,0.950,1.465,2.075,2.075
-0.195,0.045,0.951,1.160,2.075,2.258
-0.193,0.041,0.954,1.099,2.136,2.075
-0.189,0.041,0.955,1.038,1.953,0.854
-0.188,0.047,0.953,0.671,2.014,-0.244
-0.191,0.050,0.955,0.488,1.465,-0.183
-0.192,0.053,0.953,0.610,1.831,0.183
-0.195,0.055,0.956,1.038,1.587,0.610
-0.195,0.054,0.951,1.160,1.282,1.709
-0.192,0.050,0.953,1.221,2.014,1.770
-0.192,0.048,0.954,1.038,1.648,1.831
-0.192,0.047,0.950,0.916,1.648,1.648
-0.194,0.048,0.954,0.793,1.892,1.343
-0.195,0.049,0.951,0.732,1.831,1.465
-0.194,0.049,0.954,0.977,2.136,1.221
-0.197,0.049,0.953,1.770,2.075,1.038
-0.193,0.046,0.951,1.648,2.380,0.977
-0.188,0.042,0.956,1.587,2.441,0.671
-0.188,0.043,0.953,1.038,1.831,0.183
-0.190,0.049,0.952,0.671,1.953,-0.122
-0.190,0.055,0.956,0.549,1.587,0.305
-0.191,0.057,0.953,1.038,1.465,0.977
-0.188,0.055,0.956,1.587,1.831,1.465
-0.191,0.049,0.954,1.465,1.343,1.526
-0.190,0.045,0.953,1.343,1.648,1.587
-0.192,0.042,0.954,1.038,1.587,1.099
-0.196,0.047,0.953,0.793,1.465,1.038
-0.197,0.048,0.950,1.099,1.465,0.916
-0.198,0.047,0.952,0.977,2.014,0.732
-0.198,0.048,0.951,1.160,1.892,0.916
-0.192,0.048,0.953,1.160,2.625,0.977
-0.189,0.046,0.958,0.977,2.930,0.732
-0.183,0.045,0.952,0.549,1.831,0.610
-0.184,0.049,0.956,0.427,1.953,-0.366
-0.187,0.054,0.956,0.610,1.770,-0.183
-0.192,0.060,0.952,0.732,1.404,0.916
-0.189,0.057,0.953,1.465,1.648,2.197
-0.191,0.051,0.956,1.343,1.648,2.014
-0.191,0.048,0.952,1.648,1.465,2.380
-0.192,0.045,0.952,1.282,1.770,2.136
-0.193,0.045,0.954,0.854,1.770,1.648
-0.195,0.047,0.953,1.038,1.831,1.160
-0.196,0.048,0.950,1.099,2.197,0.854
-0.193,0.047,0.956,0.854,2.014,0.793

-0.191,0.049,0.954,0.977,1.953,0.732
-0.188,0.048,0.955,0.793,1.831,0.732
-0.189,0.049,0.956,1.038,1.831,0.244
-0.192,0.052,0.953,0.854,1.526,0.610
-0.191,0.052,0.954,0.793,1.587,0.732
-0.192,0.052,0.955,1.221,2.075,0.793
-0.194,0.054,0.952,1.526,1.465,1.465
-0.194,0.051,0.953,1.282,1.648,2.075
-0.192,0.047,0.952,1.282,1.770,2.197
-0.189,0.043,0.954,0.916,1.648,2.258
-0.189,0.045,0.953,0.427,1.282,1.648
-0.194,0.047,0.952,0.366,1.648,0.793
-0.195,0.051,0.956,0.854,1.770,0.366
-0.198,0.054,0.950,0.977,1.282,1.038
-0.194,0.053,0.954,1.221,2.136,1.221
-0.191,0.049,0.954,1.099,1.892,1.282
-0.191,0.046,0.955,1.221,1.831,1.221
-0.188,0.044,0.955,1.099,1.831,0.793
-0.189,0.046,0.951,1.038,1.526,0.671
-0.193,0.053,0.955,0.671,1.465,0.305
-0.197,0.057,0.953,0.854,1.465,0.549
-0.198,0.057,0.951,1.587,1.709,1.465
-0.195,0.051,0.953,1.587,1.953,2.136
-0.191,0.041,0.954,1.404,1.892,2.014
-0.190,0.040,0.952,0.732,1.587,1.465
-0.191,0.047,0.953,0.183,1.648,0.916
-0.197,0.057,0.955,-0.061,1.526,0.793
-0.195,0.057,0.953,0.977,1.709,1.099
-0.196,0.050,0.955,1.831,2.319,1.099
-0.195,0.046,0.949,2.136,2.136,1.343
-0.190,0.041,0.953,0.916,2.380,1.038
-0.190,0.049,0.957,0.183,1.831,0.122
-0.192,0.055,0.955,0.549,1.587,0.305
-0.191,0.056,0.955,1.282,1.770,0.305
-0.193,0.056,0.954,1.221,1.587,0.916
-0.195,0.052,0.952,1.526,1.770,1.343
-0.195,0.048,0.953,1.282,1.953,1.404
-0.195,0.047,0.952,1.404,1.892,1.587
-0.193,0.047,0.950,0.977,2.014,1.648
-0.190,0.047,0.955,0.732,1.892,1.160
-0.193,0.052,0.954,0.488,1.709,0.916
-0.193,0.053,0.953,0.732,1.770,0.977
-0.194,0.053,0.954,0.854,1.648,1.221
-0.195,0.051,0.953,1.282,2.075,1.160
-0.195,0.046,0.952,1.404,2.502,0.977
-0.192,0.046,0.953,0.916,1.831,0.916
-0.191,0.048,0.952,0.916,1.709,0.488
-0.192,0.052,0.955,0.610,1.831,0.488
-0.193,0.053,0.954,0.488,1.587,0.671
-0.191,0.053,0.954,1.160,1.587,1.038
-0.193,0.053,0.951,1.709,1.404,1.282
-0.196,0.049,0.953,1.648,1.953,1.404
-0.195,0.048,0.951,1.160,1.709,1.770
-0.192,0.046,0.952,1.038,2.136,1.526
-0.191,0.047,0.954,0.610,2.075,0.854
-0.193,0.051,0.953,0.549,1.099,0.916
-0.195,0.053,0.950,0.854,1.282,0.732
-0.200,0.056,0.953,1.038,1.770,0.916
-0.195,0.051,0.951,1.526,1.953,1.526
-0.190,0.043,0.953,1.282,2.441,1.221
-0.191,0.043,0.955,0.916,1.709,0.183
-0.191,0.049,0.953,0.732,1.343,-0.061
-0.190,0.053,0.955,0.305,1.526,-0.122
-0.198,0.057,0.948,0.549,1.160,0.549
-0.196,0.057,0.953,0.244,1.831,1.709
-0.194,0.054,0.955,1.099,1.709,1.831
-0.195,0.049,0.952,1.953,1.953,1.648
-0.193,0.046,0.950,1.099,1.587,1.953
-0.188,0.045,0.954,0.305,2.075,1.465
-0.193,0.051,0.956,0.061,1.343,0.916
-0.194,0.058,0.952,0.732,1.465,0.854
-0.194,0.059,0.954,0.916,1.465,1.404
-0.193,0.052,0.954,1.526,1.343,1.831
-0.194,0.047,0.953,1.831,2.136,1.221
-0.194,0.044,0.951,1.770,1.892,1.099
-0.193,0.046,0.954,0.732,1.526,0.549
-0.194,0.053,0.953,0.793,1.526,0.305
-0.193,0.055,0.954,1.343,1.526,0.488
-0.194,0.056,0.952,1.343,1.526,0.549
-0.198,0.053,0.954,1.709,1.526,0.671
-0.202,0.051,0.948,2.014,1.953,1.099
-0.200,0.047,0.952,1.282,1.709,2.014
-0.193,0.044,0.954,0.671,1.892,1.648
-0.190,0.043,0.953,0.488,1.953,1.038
-0.193,0.048,0.954,0.488,1.282,0.305
-0.196,0.053,0.952,-0.061,1.282,0.671
-0.199,0.059,0.957,0.244,2.014,0.427
-0.201,0.057,0.952,1.709,2.808,1.160
-0.196,0.048,0.950,1.831,2.441,1.465
-0.193,0.042,0.954,1.221,2.258,1.282
-0.193,0.046,0.951,0.671,2.014,0.916
-0.192,0.049,0.954,0.427,1.831,0.183
-0.194,0.055,0.957,0.610,1.648,0.183
-0.197,0.056,0.952,0.793,0.977,0.732
-0.198,0.056,0.951,1.465,1.587,1.526
-0.197,0.054,0.954,0.916,1.770,1.831
-0.195,0.048,0.952,1.282,2.258,2.136
-0.194,0.044,0.952,1.038,2.258,1.160
-0.194,0.047,0.955,0.244,1.404,1.099
-0.193,0.051,0.954,0.244,1.770,1.221

-0.192,0.055,0.954,0.366,1.526,1.343
-0.195,0.057,0.953,0.916,1.648,0.854
-0.199,0.053,0.952,1.831,2.014,1.221
-0.197,0.048,0.951,2.014,2.380,1.404
-0.194,0.045,0.953,1.709,2.258,1.221
-0.192,0.046,0.953,1.099,2.075,0.854
-0.191,0.049,0.955,0.916,2.075,0.183
-0.194,0.054,0.954,0.671,1.648,0.366
-0.193,0.054,0.954,0.732,1.465,0.793
-0.196,0.056,0.954,0.854,1.587,0.854
-0.199,0.055,0.949,1.343,1.526,1.648
-0.195,0.051,0.954,1.404,2.380,2.014
-0.193,0.047,0.956,1.587,1.953,1.831
-0.192,0.044,0.950,1.221,2.075,1.282
-0.194,0.045,0.955,0.305,2.136,0.793
-0.193,0.049,0.953,0.427,1.770,0.610
-0.193,0.052,0.954,0.610,1.709,0.366
-0.195,0.056,0.952,0.732,1.831,0.305
-0.194,0.053,0.954,1.038,1.953,0.854
-0.195,0.052,0.953,1.038,1.892,0.977
-0.195,0.051,0.951,1.099,2.136,1.160
-0.193,0.049,0.955,0.793,1.892,0.916
-0.194,0.049,0.954,0.854,1.770,0.549
-0.194,0.052,0.952,1.221,1.770,0.610
-0.192,0.054,0.953,0.793,2.014,0.854
-0.194,0.053,0.955,1.099,1.770,1.160
-0.194,0.048,0.953,1.587,1.892,1.099
-0.196,0.047,0.950,1.587,2.380,0.732
-0.199,0.053,0.952,0.854,1.526,1.282
-0.196,0.055,0.950,0.488,1.465,2.319
-0.190,0.050,0.955,0.732,2.197,2.319
-0.187,0.047,0.956,0.671,1.892,1.892
-0.188,0.048,0.951,0.549,1.770,0.977
-0.191,0.052,0.955,0.122,0.427,0.977
-0.196,0.056,0.954,0.610,1.526,0.488
-0.202,0.059,0.951,1.587,1.831,0.854
-0.197,0.052,0.950,1.221,2.075,1.953
-0.190,0.046,0.954,0.916,2.258,2.197
-0.187,0.040,0.954,0.427,1.953,0.977
-0.189,0.050,0.953,0.000,0.916,0.488
-0.191,0.053,0.954,0.427,1.587,0.427
-0.196,0.065,0.955,0.793,1.282,0.549
-0.199,0.065,0.950,1.831,1.892,1.282
-0.198,0.055,0.953,1.831,1.892,2.136
-0.193,0.042,0.949,1.099,1.709,2.502
-0.191,0.040,0.955,0.732,1.587,1.709
-0.193,0.047,0.953,0.610,1.770,0.732
-0.195,0.053,0.952,0.366,1.526,0.732
-0.196,0.058,0.952,0.366,0.732,1.343
-0.195,0.055,0.954,0.793,1.465,1.404
-0.196,0.054,0.953,1.221,1.709,1.099
-0.197,0.051,0.950,1.343,1.404,1.282
-0.197,0.050,0.953,0.610,1.526,1.343
-0.196,0.051,0.952,0.916,1.587,1.343
-0.194,0.051,0.952,1.160,2.075,0.977
-0.193,0.050,0.951,0.610,1.465,0.977
-0.194,0.050,0.953,0.305,1.648,0.549
-0.196,0.056,0.955,0.854,1.648,0.122
-0.199,0.061,0.951,0.732,1.282,0.854
-0.197,0.059,0.951,1.160,1.404,2.075
-0.195,0.053,0.954,1.343,1.526,2.075
-0.194,0.048,0.952,1.221,1.587,1.831
-0.193,0.045,0.952,1.282,1.892,1.343
-0.194,0.046,0.950,0.488,1.709,1.038
-0.194,0.051,0.953,0.122,1.526,0.610
-0.197,0.057,0.952,0.366,1.343,0.732
-0.198,0.059,0.952,1.099,1.770,1.160
-0.197,0.056,0.951,1.160,1.526,1.709
-0.198,0.052,0.952,1.465,1.709,1.709
-0.196,0.049,0.950,1.282,1.648,1.343
-0.198,0.045,0.952,0.977,1.587,1.099
-0.196,0.050,0.950,0.244,1.282,0.977
-0.192,0.049,0.958,0.671,2.136,0.366
-0.195,0.056,0.950,1.404,1.343,-0.122
-0.200,0.058,0.949,1.465,1.709,0.549
-0.199,0.055,0.950,1.038,1.953,1.404
-0.197,0.052,0.952,0.977,1.892,1.587
-0.196,0.048,0.950,1.465,1.953,1.099
-0.198,0.051,0.950,0.732,1.709,1.038
-0.197,0.053,0.953,0.732,1.953,1.221
-0.197,0.056,0.953,0.854,1.526,1.282
-0.195,0.055,0.952,1.221,1.831,1.282
-0.195,0.051,0.952,1.221,1.892,1.160
-0.195,0.050,0.951,0.793,1.648,0.732
-0.195,0.052,0.951,0.549,1.587,1.160
-0.195,0.053,0.952,0.977,1.404,0.854
-0.198,0.056,0.951,0.488,1.221,0.854
-0.199,0.055,0.951,0.854,1.526,1.099
-0.198,0.054,0.950,1.038,1.892,1.038
-0.198,0.052,0.951,1.221,2.197,0.854
-0.199,0.055,0.952,1.343,1.953,1.160
-0.196,0.053,0.952,1.221,1.709,1.404
-0.192,0.053,0.952,0.854,1.831,1.282
-0.198,0.052,0.952,1.404,1.709,0.793
-0.197,0.052,0.948,1.465,1.831,0.916
-0.197,0.051,0.951,0.793,2.075,0.977
-0.200,0.056,0.953,0.671,1.465,0.854
-0.199,0.058,0.949,0.977,1.953,1.892
-0.195,0.052,0.953,1.404,2.441,2.014
-0.192,0.047,0.954,1.343,2.014,1.892

-0.192,0.047,0.949,0.610,1.343,1.099
-0.197,0.052,0.953,0.305,1.465,0.305
-0.202,0.061,0.950,0.854,1.526,0.732
-0.200,0.058,0.951,1.160,1.831,1.282
-0.197,0.052,0.952,1.770,2.197,1.404
-0.196,0.046,0.950,1.465,1.831,1.343
-0.192,0.045,0.950,0.671,1.831,0.854
-0.193,0.054,0.953,0.183,1.526,0.183
-0.198,0.062,0.956,1.160,1.343,0.000
-0.199,0.062,0.950,1.648,1.587,0.977
-0.198,0.053,0.951,1.892,2.136,1.221
-0.199,0.051,0.951,1.404,1.709,1.160
-0.200,0.050,0.949,1.160,1.709,1.465
-0.199,0.051,0.951,0.854,1.831,1.160
-0.199,0.054,0.951,0.916,1.648,1.221
-0.198,0.054,0.951,0.671,1.770,1.404
-0.196,0.052,0.954,0.916,1.892,1.343
-0.195,0.051,0.950,0.977,1.709,1.099
-0.198,0.053,0.950,0.732,1.709,0.610
-0.200,0.056,0.952,0.854,1.892,0.793
-0.199,0.055,0.950,0.732,1.587,1.343
-0.197,0.054,0.952,1.404,2.136,0.977
-0.196,0.051,0.951,1.343,1.953,0.916
-0.195,0.052,0.953,0.488,1.526,1.160
-0.195,0.054,0.955,0.671,1.465,0.854
-0.195,0.058,0.953,0.977,1.709,0.549
-0.198,0.059,0.949,1.648,1.770,1.099
-0.200,0.053,0.952,1.282,1.526,1.648
-0.200,0.049,0.948,1.343,1.648,1.831
-0.200,0.050,0.950,1.160,2.075,1.221
-0.199,0.053,0.949,0.610,1.709,1.465
-0.196,0.054,0.952,0.488,2.014,1.404
-0.195,0.056,0.955,0.427,1.831,1.221
-0.194,0.053,0.953,1.099,1.465,1.343
-0.198,0.050,0.951,1.038,1.526,0.732
-0.201,0.052,0.950,1.099,1.587,0.732
-0.201,0.056,0.947,0.671,1.770,0.916
-0.201,0.055,0.953,1.038,2.136,0.854
-0.199,0.052,0.950,1.221,1.831,1.221
-0.193,0.045,0.951,0.916,1.953,0.854
-0.194,0.049,0.954,0.854,1.892,0.488
-0.196,0.055,0.953,0.488,1.282,0.122
-0.199,0.059,0.954,1.221,2.441,-0.244
-0.202,0.063,0.953,1.404,1.831,0.793
-0.198,0.056,0.951,1.648,2.380,1.648
-0.194,0.048,0.951,1.892,2.197,1.465
-0.197,0.049,0.951,1.770,2.502,1.038
-0.197,0.052,0.950,0.854,1.343,1.099
-0.195,0.054,0.952,0.732,1.831,1.465
-0.194,0.054,0.953,0.427,1.831,1.099
-0.195,0.053,0.953,0.732,2.258,0.610
-0.197,0.054,0.953,1.099,2.258,0.427
-0.201,0.058,0.950,1.404,2.136,0.916
-0.198,0.054,0.950,1.465,2.563,1.526
-0.197,0.046,0.950,1.648,2.319,1.221
-0.197,0.047,0.951,1.221,2.319,0.366
-0.196,0.054,0.950,0.488,1.831,0.366
-0.197,0.059,0.954,0.488,2.319,0.671
-0.191,0.059,0.954,0.610,1.953,3.418
-0.190,0.054,0.953,1.221,2.075,1.587
-0.196,0.055,0.951,1.404,1.709,0.977
-0.198,0.055,0.950,1.404,1.709,1.343
-0.199,0.053,0.950,1.282,1.831,1.404
-0.198,0.052,0.950,1.282,2.075,1.587
-0.195,0.051,0.951,1.221,2.075,1.709
-0.191,0.050,0.953,0.610,1.770,1.587
-0.190,0.052,0.955,0.427,1.526,0.854
-0.195,0.056,0.951,0.854,1.282,0.488
-0.200,0.057,0.952,1.099,1.526,1.099
-0.199,0.056,0.950,1.343,1.526,1.465
-0.198,0.053,0.950,1.282,2.075,1.465
-0.195,0.050,0.950,1.099,1.770,1.343
-0.192,0.051,0.954,0.977,2.136,0.671
-0.194,0.052,0.953,0.977,2.014,0.610
-0.195,0.055,0.952,0.732,1.465,0.732
-0.197,0.059,0.953,0.916,1.587,0.549
-0.199,0.059,0.950,1.404,1.404,1.099
-0.199,0.058,0.951,1.221,1.648,1.526
-0.198,0.052,0.950,1.465,1.648,2.075
-0.196,0.045,0.950,1.648,2.014,1.587
-0.197,0.047,0.950,1.160,1.953,0.916
-0.198,0.053,0.951,0.610,1.831,0.793
-0.199,0.059,0.953,0.732,1.892,1.038
-0.197,0.057,0.951,1.221,2.014,1.404
-0.191,0.050,0.954,1.099,1.709,1.404
-0.195,0.048,0.951,0.854,1.526,0.427
-0.199,0.054,0.950,0.549,1.526,0.366
-0.201,0.062,0.951,0.610,1.404,0.916
-0.197,0.059,0.952,1.404,1.709,2.014
-0.192,0.051,0.953,1.282,1.648,1.709
-0.193,0.049,0.951,0.977,1.282,1.343
-0.195,0.050,0.953,0.732,1.038,0.793
-0.199,0.054,0.953,0.977,1.282,0.732
-0.200,0.058,0.951,0.977,1.343,0.916
-0.200,0.057,0.951,1.099,1.526,1.404
-0.200,0.053,0.950,1.587,1.709,1.404
-0.199,0.048,0.950,1.404,2.075,1.465
-0.198,0.050,0.949,0.854,1.587,0.854
-0.201,0.053,0.951,0.732,1.709,1.282
-0.201,0.054,0.952,0.977,1.953,1.282

-0.196,0.054,0.950,0.732,1.526,1.282
-0.194,0.052,0.953,0.732,2.136,1.282
-0.195,0.053,0.952,0.549,1.404,0.793
-0.200,0.056,0.949,0.793,1.709,0.793
-0.201,0.057,0.953,1.160,1.709,0.916
-0.199,0.054,0.952,1.343,2.258,1.282
-0.196,0.050,0.950,1.343,1.526,1.282
-0.194,0.051,0.951,0.610,1.892,0.793
-0.197,0.056,0.955,0.427,1.465,0.122
-0.200,0.060,0.953,1.282,1.648,0.122
-0.200,0.059,0.950,1.770,1.831,1.343
-0.198,0.053,0.951,1.160,1.526,1.465
-0.201,0.051,0.950,1.465,1.648,1.221
-0.200,0.049,0.949,1.587,1.770,1.343
-0.201,0.051,0.949,0.549,1.892,1.282
-0.200,0.056,0.950,0.427,1.953,1.221
-0.199,0.055,0.953,0.793,2.136,1.526
-0.196,0.051,0.954,1.221,2.075,1.221
-0.198,0.052,0.953,0.977,1.648,1.099
-0.198,0.055,0.952,0.305,2.014,0.977
-0.197,0.056,0.957,0.671,1.831,1.160
-0.198,0.057,0.953,0.977,1.709,1.038
-0.199,0.055,0.949,1.526,1.831,1.160
-0.200,0.052,0.951,1.404,1.648,1.343
-0.197,0.048,0.951,0.977,1.831,1.465
-0.196,0.050,0.953,0.977,1.709,0.793
-0.200,0.057,0.952,1.038,1.343,0.854
-0.199,0.056,0.950,1.404,1.709,0.977
-0.200,0.054,0.952,1.587,1.709,0.916
-0.201,0.053,0.950,1.465,1.709,1.282
-0.201,0.050,0.950,1.099,2.197,1.099
-0.201,0.052,0.950,0.977,1.892,0.854
-0.198,0.054,0.949,0.488,1.770,1.465
-0.194,0.053,0.954,0.549,1.953,1.770
-0.195,0.052,0.954,0.977,1.709,1.099
-0.196,0.053,0.950,0.732,1.160,0.977
-0.199,0.058,0.951,0.977,1.648,0.793
-0.202,0.056,0.952,1.526,1.831,1.221
-0.201,0.053,0.948,1.465,1.831,1.343
-0.197,0.047,0.950,1.404,2.319,1.465
-0.194,0.047,0.953,0.732,1.587,0.488
-0.196,0.055,0.955,0.793,1.709,-0.122
-0.199,0.060,0.953,1.038,1.404,0.305
-0.201,0.060,0.951,1.587,1.648,0.793
-0.202,0.056,0.950,2.014,2.014,1.282
-0.201,0.052,0.949,1.587,1.709,1.648
-0.199,0.048,0.950,1.343,2.075,1.465
-0.200,0.049,0.950,1.038,2.197,1.038
-0.198,0.052,0.950,0.305,1.404,1.282
-0.197,0.055,0.953,0.732,1.648,1.099
-0.200,0.055,0.952,0.854,1.953,0.854
-0.201,0.056,0.953,0.916,1.709,1.221
-0.201,0.054,0.950,1.099,1.526,1.587
-0.198,0.051,0.952,1.038,1.770,1.526
-0.197,0.050,0.952,1.160,2.014,1.160
-0.197,0.050,0.951,0.732,1.892,0.916
-0.198,0.051,0.950,0.732,1.648,0.610
-0.198,0.055,0.954,0.305,1.526,0.793
-0.201,0.059,0.950,0.977,1.465,0.793
-0.200,0.056,0.950,1.648,1.953,1.221
-0.200,0.054,0.952,1.404,2.014,1.099
-0.200,0.052,0.946,1.099,1.953,1.160
-0.202,0.051,0.952,1.038,2.136,1.099
-0.202,0.052,0.950,0.916,2.319,1.343
-0.197,0.054,0.952,0.610,2.136,1.404
-0.194,0.053,0.953,0.488,2.014,1.465
-0.195,0.055,0.953,0.732,2.014,0.671
-0.197,0.056,0.951,0.916,1.953,0.671
-0.198,0.056,0.953,1.160,1.892,0.916
-0.199,0.056,0.952,0.977,2.014,0.916
-0.198,0.054,0.950,1.343,1.953,1.343
-0.197,0.051,0.953,1.099,2.014,1.038
-0.197,0.051,0.952,1.282,1.770,0.793
-0.195,0.052,0.951,0.366,1.160,0.671
-0.197,0.055,0.954,1.099,2.197,0.305
-0.198,0.058,0.953,1.221,1.587,0.427
-0.199,0.057,0.950,1.221,1.892,0.854
-0.200,0.055,0.953,1.221,2.014,1.160
-0.198,0.052,0.951,1.343,2.075,0.916
-0.197,0.049,0.950,1.221,2.014,1.221
-0.199,0.051,0.953,1.038,2.014,0.854
-0.200,0.056,0.951,0.854,1.892,0.549
-0.198,0.058,0.952,0.977,2.197,1.221
-0.194,0.055,0.954,0.854,1.953,1.770
-0.192,0.052,0.953,1.160,1.770,1.404
-0.193,0.052,0.953,0.916,1.648,0.977
-0.197,0.054,0.950,0.610,2.075,0.732
-0.197,0.056,0.951,1.160,1.709,1.282
-0.200,0.058,0.952,1.526,2.136,1.282
-0.199,0.052,0.952,0.732,2.014,1.404
-0.197,0.051,0.952,0.793,2.258,1.282
-0.194,0.050,0.954,0.671,1.038,1.282
-0.197,0.052,0.954,0.732,1.099,0.549
-0.202,0.056,0.949,1.404,1.831,0.793
-0.200,0.057,0.952,0.916,1.892,1.160
-0.200,0.056,0.952,0.977,1.892,1.221
-0.199,0.052,0.949,1.282,2.075,1.587
-0.198,0.050,0.950,0.977,1.892,1.404
-0.197,0.052,0.953,0.854,2.014,1.282
-0.197,0.053,0.953,0.793,1.648,1.160

-0.196,0.056,0.954,0.427,1.831,1.099
-0.198,0.056,0.954,0.793,2.197,1.160
-0.200,0.057,0.951,1.099,1.526,1.099
-0.201,0.057,0.950,1.160,1.770,1.099
-0.200,0.053,0.953,0.916,1.892,1.648
-0.196,0.052,0.952,1.099,1.892,1.282
-0.196,0.050,0.952,0.916,1.892,1.099
-0.196,0.050,0.951,0.610,1.282,0.732
-0.198,0.055,0.953,0.610,1.648,0.305
-0.201,0.063,0.954,0.916,1.770,0.671
-0.199,0.061,0.951,1.282,1.648,1.648
-0.198,0.055,0.951,1.831,1.831,2.197
-0.197,0.050,0.951,1.404,0.854,2.075
-0.198,0.047,0.951,1.099,2.014,1.343
-0.198,0.049,0.951,0.854,1.648,1.526
-0.199,0.055,0.953,0.671,1.404,0.916
-0.200,0.059,0.951,0.610,1.526,1.038
-0.200,0.056,0.950,0.793,1.526,1.404
-0.198,0.052,0.953,1.099,1.770,1.160
-0.198,0.051,0.950,1.038,1.587,0.977
-0.201,0.052,0.950,0.732,1.465,0.671
-0.203,0.056,0.951,0.671,1.709,0.488
-0.202,0.059,0.950,0.977,1.953,1.221
-0.198,0.055,0.953,1.160,2.014,1.221
-0.197,0.051,0.953,1.221,1.892,1.282
-0.196,0.051,0.950,1.282,1.587,0.793
-0.199,0.057,0.954,0.793,1.526,0.610
-0.201,0.059,0.951,0.916,1.587,1.038
-0.200,0.054,0.950,1.526,2.136,1.221
-0.199,0.049,0.950,1.465,2.197,1.038
-0.200,0.051,0.950,0.916,1.770,0.916
-0.201,0.057,0.951,0.732,2.380,1.099
-0.198,0.055,0.951,0.732,1.587,1.465
-0.198,0.055,0.951,0.366,0.916,1.831
-0.198,0.052,0.955,0.854,1.770,1.221
-0.200,0.055,0.952,1.282,1.587,0.916
-0.204,0.056,0.949,1.526,1.526,1.038
-0.204,0.055,0.950,1.343,2.075,1.343
-0.200,0.052,0.951,0.977,1.770,1.709
-0.195,0.050,0.951,0.671,1.648,1.648
-0.195,0.052,0.954,0.854,1.709,0.610
-0.198,0.060,0.953,0.854,1.038,0.244
-0.203,0.059,0.950,0.854,1.282,0.916
-0.203,0.056,0.950,1.465,1.648,1.465
-0.201,0.051,0.950,1.099,1.221,1.709
-0.202,0.052,0.950,1.587,1.648,1.587
-0.200,0.052,0.948,1.099,1.648,1.465
-0.200,0.054,0.953,0.793,1.526,1.160
-0.201,0.055,0.950,0.793,1.404,1.160
-0.202,0.054,0.952,1.343,1.587,1.343
-0.201,0.053,0.950,0.671,1.953,0.916
-0.200,0.054,0.949,1.038,2.380,1.099
-0.198,0.052,0.951,0.488,2.258,0.916
-0.198,0.054,0.953,1.526,1.709,0.916
-0.199,0.056,0.951,0.488,1.038,0.793
-0.201,0.057,0.950,0.793,0.977,0.977
-0.202,0.054,0.948,0.427,0.793,1.526
-0.199,0.056,0.957,0.671,1.831,1.343
-0.201,0.056,0.953,1.709,1.831,0.793
-0.202,0.054,0.946,1.953,1.648,1.099
-0.203,0.052,0.949,0.854,1.648,1.282
-0.202,0.053,0.952,0.854,1.831,1.099
-0.200,0.053,0.950,1.343,1.770,0.793
-0.203,0.056,0.950,1.282,2.014,0.610
-0.201,0.056,0.948,0.793,1.831,1.526
-0.200,0.055,0.956,0.732,2.319,1.526
-0.200,0.054,0.949,1.343,2.014,1.160
-0.199,0.052,0.951,1.099,2.197,1.038
-0.198,0.055,0.952,0.732,1.953,1.282
-0.199,0.056,0.952,0.732,1.953,1.221
-0.199,0.057,0.953,1.099,1.831,0.977
-0.200,0.057,0.951,0.793,1.526,1.282
-0.199,0.054,0.952,0.977,1.587,1.648
-0.199,0.052,0.951,1.221,1.587,1.099
-0.200,0.054,0.951,0.977,1.587,0.977
-0.199,0.055,0.950,0.793,1.465,1.038
-0.202,0.058,0.953,1.160,1.709,0.977
-0.201,0.054,0.950,1.465,1.709,1.099
-0.202,0.051,0.950,1.282,1.709,0.854
-0.206,0.053,0.948,1.282,1.587,0.671
-0.204,0.056,0.948,0.488,1.709,1.526
-0.201,0.055,0.953,1.343,3.235,1.160
-0.201,0.051,0.951,1.343,2.197,0.854
-0.199,0.049,0.946,0.732,1.404,0.732
-0.202,0.056,0.952,0.122,1.282,0.488
-0.202,0.061,0.952,0.427,2.625,1.099
-0.195,0.057,0.955,1.160,2.991,0.977
-0.199,0.053,0.950,1.831,2.686,0.610
-0.199,0.052,0.951,1.343,2.625,0.488
-0.200,0.055,0.952,0.916,1.160,0.916
-0.203,0.059,0.951,1.221,1.648,0.854
-0.200,0.055,0.951,1.709,2.441,1.038
-0.200,0.051,0.951,1.404,1.343,1.038
-0.199,0.053,0.951,0.977,1.709,1.099
-0.198,0.056,0.952,0.854,2.014,0.916
-0.198,0.058,0.954,0.793,1.648,0.610
-0.201,0.056,0.950,1.587,2.380,0.366
-0.203,0.053,0.950,1.465,1.953,0.854
-0.204,0.054,0.949,1.160,1.831,0.793
-0.204,0.056,0.950,1.099,2.136,1.099

-0.201,0.054,0.952,1.038,2.380,1.526
-0.197,0.052,0.954,1.038,2.136,1.648
-0.195,0.051,0.953,0.916,1.953,1.221
-0.196,0.056,0.951,0.427,1.587,1.709
-0.197,0.058,0.952,0.366,1.770,1.404
-0.203,0.059,0.952,0.793,1.648,0.977
-0.204,0.057,0.950,1.404,1.953,1.038
-0.199,0.053,0.950,1.221,1.770,1.587
-0.195,0.050,0.952,1.038,2.014,1.160
-0.198,0.052,0.951,1.099,1.770,0.488
-0.200,0.055,0.950,0.793,1.587,0.305
-0.200,0.059,0.954,1.160,1.831,0.671
-0.200,0.059,0.952,1.404,1.831,1.221
-0.198,0.055,0.949,1.404,2.197,1.343
-0.199,0.052,0.951,1.343,1.831,1.160
-0.200,0.055,0.951,1.160,1.831,1.099
-0.199,0.055,0.951,0.977,1.831,1.221
-0.200,0.057,0.950,0.977,1.831,1.343
-0.199,0.056,0.950,0.977,1.892,1.709
-0.197,0.054,0.952,0.854,2.014,1.526
-0.199,0.054,0.953,1.038,1.892,1.587
-0.197,0.053,0.951,0.916,1.770,1.709
-0.198,0.054,0.954,0.854,1.465,0.916
-0.198,0.056,0.951,0.977,1.404,1.282
-0.198,0.055,0.953,0.977,1.648,1.160
-0.200,0.056,0.954,0.977,1.648,1.099
-0.203,0.056,0.951,1.343,1.831,1.099
-0.202,0.053,0.952,1.099,1.892,1.404
-0.199,0.056,0.952,1.099,1.648,1.587
-0.198,0.054,0.953,1.160,1.648,1.160
-0.201,0.055,0.951,1.282,1.526,0.854
-0.203,0.055,0.950,1.404,1.709,1.099
-0.201,0.054,0.951,0.977,1.465,1.343
-0.201,0.053,0.949,0.977,1.526,1.038
-0.202,0.055,0.950,1.099,2.014,1.038
-0.203,0.058,0.950,1.038,1.831,1.404
-0.202,0.056,0.952,1.160,1.831,1.709
-0.199,0.052,0.950,1.099,1.892,1.587
-0.199,0.050,0.952,0.854,2.258,1.343
-0.199,0.051,0.952,0.610,2.014,0.793
-0.199,0.057,0.952,0.427,1.831,0.610
-0.201,0.059,0.949,0.610,1.587,0.671
-0.201,0.059,0.952,1.038,1.831,1.099
-0.199,0.055,0.953,1.343,1.709,1.221
-0.198,0.052,0.950,0.977,1.648,1.099
-0.198,0.055,0.951,0.549,1.404,0.977
-0.200,0.058,0.953,0.427,1.160,0.916
-0.200,0.058,0.953,0.854,1.404,0.732
-0.200,0.055,0.952,1.465,1.587,0.977
-0.200,0.054,0.949,1.282,1.465,1.099
-0.202,0.053,0.951,1.038,1.282,1.038
-0.205,0.055,0.950,1.160,1.526,1.038
-0.203,0.055,0.950,0.977,2.136,1.038
-0.203,0.056,0.950,0.916,1.709,1.221
-0.200,0.052,0.950,0.916,1.831,1.648
-0.200,0.051,0.955,0.610,1.831,1.099
-0.204,0.056,0.950,1.221,1.892,0.671
-0.203,0.058,0.948,0.977,1.953,1.343
-0.201,0.058,0.953,0.732,2.258,1.709
-0.195,0.055,0.951,0.732,1.587,2.014
-0.192,0.052,0.953,0.977,1.770,1.160
-0.196,0.052,0.956,0.793,1.221,0.183
-0.204,0.061,0.948,0.854,0.977,0.488
-0.205,0.064,0.950,0.732,1.465,0.977
-0.205,0.060,0.951,1.404,1.465,1.648
-0.201,0.050,0.947,1.831,1.831,2.014
-0.198,0.046,0.951,0.793,1.709,1.465
-0.199,0.050,0.953,0.366,1.221,0.793
-0.202,0.056,0.952,0.977,1.282,-0.183
-0.206,0.062,0.950,0.854,1.892,0.061
-0.206,0.061,0.949,1.038,1.709,1.221
-0.201,0.054,0.952,1.221,2.441,1.770
-0.200,0.051,0.950,1.526,1.648,1.404
-0.200,0.052,0.948,0.793,1.770,1.160
-0.201,0.057,0.953,0.427,1.892,1.038
-0.202,0.062,0.953,1.099,1.892,1.282
-0.200,0.058,0.950,1.465,2.136,1.587
-0.198,0.053,0.954,0.977,2.014,1.587
-0.199,0.051,0.953,0.916,1.587,1.099
-0.203,0.055,0.950,0.854,1.343,0.549
-0.205,0.060,0.950,0.671,1.465,0.549
-0.205,0.060,0.952,1.343,2.075,1.221
-0.202,0.056,0.951,1.282,2.014,1.648
-0.197,0.051,0.954,1.160,1.831,1.648
-0.197,0.051,0.954,0.854,1.770,0.549
-0.200,0.056,0.952,0.549,1.160,0.488
-0.204,0.059,0.950,0.916,1.465,0.305
-0.208,0.062,0.950,1.221,1.404,0.732
-0.205,0.058,0.947,1.770,1.587,1.648
-0.202,0.053,0.952,1.221,2.197,1.831
-0.199,0.052,0.950,0.854,1.770,1.465
-0.199,0.054,0.952,0.854,1.953,1.099
-0.202,0.056,0.953,0.732,1.709,0.732
-0.204,0.058,0.950,1.160,1.709,0.793
-0.205,0.059,0.949,0.977,2.075,1.099
-0.207,0.058,0.950,1.465,2.197,1.709
-0.203,0.055,0.950,1.099,2.258,2.075
-0.197,0.052,0.955,0.916,2.502,1.709
-0.194,0.049,0.952,1.587,2.075,1.099
-0.195,0.046,0.952,0.732,1.648,0.671

-0.199,0.056,0.952,-0.244,0.977,-0.183
-0.204,0.074,0.952,-0.305,0.610,-0.305
-0.208,0.075,0.955,1.099,1.953,1.465
-0.200,0.052,0.948,2.869,1.892,2.625
-0.196,0.034,0.948,2.014,2.014,2.014
-0.196,0.038,0.952,0.671,1.221,0.488
-0.202,0.055,0.949,-0.244,0.977,-0.549
-0.207,0.070,0.954,0.244,1.526,-0.183
-0.208,0.067,0.955,1.648,1.648,0.732
-0.206,0.058,0.949,2.075,1.648,1.831
-0.201,0.047,0.947,1.648,1.953,1.892
-0.202,0.050,0.951,0.793,1.892,0.610
-0.208,0.055,0.949,0.916,1.953,0.549
-0.206,0.052,0.948,0.793,2.441,1.282
-0.204,0.055,0.950,0.244,2.136,0.732
-0.204,0.058,0.949,0.671,2.808,0.854
-0.200,0.059,0.951,-0.061,2.563,1.099
-0.202,0.061,0.952,-0.122,2.319,2.014
-0.195,0.055,0.957,1.099,2.747,2.075
-0.195,0.057,0.953,1.404,2.136,1.282
-0.199,0.061,0.950,1.160,2.075,1.465
-0.199,0.063,0.954,0.854,2.258,1.404
-0.196,0.056,0.951,1.221,1.953,1.648
-0.194,0.048,0.951,1.160,1.892,1.343
-0.195,0.048,0.953,0.427,1.526,0.854
-0.200,0.058,0.949,-0.183,1.526,0.671
-0.206,0.069,0.954,0.183,1.831,1.221
-0.201,0.067,0.950,0.916,1.770,2.136
-0.198,0.058,0.951,1.465,2.380,2.625
-0.192,0.046,0.951,0.549,2.136,2.014
-0.194,0.052,0.957,0.122,1.648,0.488
-0.199,0.064,0.954,-0.061,1.709,0.061
-0.199,0.068,0.953,0.854,1.831,1.343
-0.198,0.062,0.955,1.282,1.831,1.648
-0.197,0.055,0.952,1.770,1.648,1.282
-0.196,0.055,0.949,0.793,1.953,0.854
-0.197,0.057,0.954,0.305,1.404,0.610
-0.200,0.059,0.954,0.671,0.916,0.549
-0.202,0.061,0.949,0.854,1.770,0.549
-0.201,0.064,0.955,1.099,1.648,1.404
-0.201,0.062,0.950,1.587,0.977,1.343
-0.200,0.060,0.951,1.404,1.709,1.160
-0.199,0.059,0.951,0.854,1.160,1.587
-0.197,0.054,0.953,1.160,1.831,1.404
-0.198,0.046,0.953,1.038,1.709,0.610
-0.203,0.057,0.950,0.366,0.793,0.732
-0.205,0.067,0.952,0.305,1.770,0.549
-0.205,0.070,0.953,0.977,1.648,1.038
-0.201,0.064,0.953,1.587,1.953,2.014
-0.198,0.055,0.950,1.587,1.526,2.136
-0.199,0.051,0.950,0.977,1.648,1.343
-0.200,0.053,0.950,0.488,1.831,0.549
-0.202,0.062,0.954,0.305,2.075,0.427
-0.203,0.069,0.954,0.793,1.221,1.404
-0.202,0.065,0.951,1.038,2.197,1.465
-0.201,0.057,0.950,1.404,2.258,1.526
-0.200,0.052,0.950,0.549,1.282,1.587
-0.201,0.054,0.951,0.183,1.160,0.916
-0.207,0.061,0.951,0.671,2.197,0.061
-0.208,0.065,0.947,0.854,2.136,1.099
-0.201,0.064,0.950,0.366,1.648,2.686
-0.196,0.059,0.954,0.305,2.014,2.014
-0.197,0.057,0.954,1.282,2.075,0.793
-0.204,0.057,0.945,1.038,1.404,0.916
-0.207,0.060,0.947,0.000,2.014,0.916
-0.206,0.060,0.954,0.183,2.136,0.977
-0.202,0.065,0.953,0.732,1.709,1.465
-0.195,0.066,0.951,0.427,1.160,1.831
-0.194,0.061,0.955,0.427,2.502,1.038
-0.201,0.065,0.953,1.099,1.953,0.916
-0.201,0.066,0.951,1.160,1.221,1.587
-0.199,0.063,0.953,1.221,1.404,1.343
-0.200,0.059,0.948,1.770,2.136,1.160
-0.202,0.055,0.950,1.099,1.953,0.671
-0.206,0.057,0.950,0.488,1.404,0.183
-0.207,0.065,0.953,0.488,1.709,0.427
-0.202,0.061,0.951,0.793,2.319,0.916
-0.198,0.057,0.950,0.366,1.221,1.038
-0.202,0.061,0.948,-0.427,1.038,0.244
-0.206,0.069,0.951,0.061,1.099,0.427
-0.206,0.070,0.950,0.183,1.770,1.404
-0.200,0.068,0.951,0.854,1.648,2.258
-0.198,0.064,0.953,0.916,2.441,1.648
-0.198,0.062,0.952,0.977,2.136,1.038
-0.201,0.063,0.949,0.977,1.282,0.549
-0.204,0.060,0.951,0.061,1.465,0.916
-0.203,0.054,0.951,-0.244,0.854,1.404
-0.205,0.061,0.952,-0.610,1.404,0.610
-0.207,0.068,0.949,-0.732,0.610,1.221
-0.204,0.073,0.950,-0.854,0.977,1.709
-0.201,0.072,0.952,-0.610,1.160,1.831
-0.200,0.071,0.954,1.038,1.282,1.099
-0.204,0.069,0.948,1.343,1.404,0.671
-0.206,0.068,0.949,1.282,1.526,0.488
-0.205,0.074,0.955,0.977,1.099,1.038
-0.202,0.073,0.950,2.502,1.770,0.916
-0.200,0.072,0.950,2.563,2.075,0.244
-0.202,0.067,0.947,1.343,1.465,1.099
-0.204,0.068,0.953,0.610,1.282,1.099
-0.206,0.068,0.952,1.343,1.709,1.099

-0.208,0.065,0.950,1.831,1.526,1.099
-0.209,0.062,0.946,0.793,0.977,1.282
-0.208,0.068,0.951,-0.061,0.854,1.038
-0.207,0.073,0.954,0.488,1.099,1.343
-0.205,0.071,0.951,1.770,1.709,1.282
-0.205,0.066,0.946,2.075,2.014,1.099
-0.208,0.064,0.948,1.709,1.770,0.916
-0.214,0.070,0.951,1.953,1.770,0.916
-0.214,0.072,0.947,2.136,1.831,1.465
-0.208,0.064,0.949,2.197,2.747,2.075
-0.202,0.055,0.952,1.343,1.892,2.258
-0.202,0.056,0.953,1.038,1.892,1.648
-0.208,0.060,0.950,2.197,2.075,0.427
-0.215,0.065,0.945,1.587,2.197,0.793
-0.212,0.066,0.950,0.793,1.526,1.770
-0.205,0.064,0.951,1.099,1.953,1.892
-0.200,0.058,0.952,2.136,2.747,1.282
-0.200,0.056,0.950,1.038,1.404,1.343
-0.202,0.063,0.949,0.061,0.732,0.671
-0.207,0.066,0.955,1.038,2.014,0.366
-0.208,0.060,0.951,2.075,1.831,0.610
-0.206,0.051,0.946,1.892,1.892,0.305
-0.208,0.055,0.947,1.099,1.404,-0.488
-0.212,0.061,0.947,0.427,1.099,-0.610
-0.211,0.065,0.950,0.671,1.709,-0.183
-0.212,0.071,0.950,1.099,2.075,0.122
-0.206,0.067,0.947,1.526,2.319,1.343
-0.201,0.061,0.950,0.671,2.380,1.648
-0.206,0.064,0.953,0.916,1.831,1.099
-0.207,0.063,0.950,1.343,2.319,1.343
-0.207,0.063,0.948,1.465,2.136,1.282
-0.207,0.059,0.946,1.038,2.258,1.770
-0.204,0.059,0.954,0.854,2.625,1.221
-0.205,0.063,0.951,1.099,1.770,1.343
-0.204,0.064,0.950,0.793,1.831,1.587
-0.204,0.057,0.950,1.404,2.502,1.221
-0.206,0.055,0.948,1.099,2.441,0.671
-0.208,0.057,0.947,0.305,1.953,0.854
-0.205,0.063,0.950,-0.488,1.648,2.075
-0.203,0.067,0.955,-0.305,1.953,1.770
-0.200,0.070,0.948,0.061,1.831,1.770
-0.201,0.072,0.954,0.488,1.831,1.831
-0.199,0.069,0.953,1.587,1.892,2.075
-0.198,0.065,0.950,1.831,1.831,2.625
-0.198,0.059,0.953,1.099,1.770,2.319
-0.203,0.058,0.953,1.587,1.648,1.038
-0.211,0.061,0.946,1.587,1.587,0.244
-0.211,0.060,0.946,1.343,1.282,1.160
-0.205,0.056,0.951,1.099,1.892,1.221
-0.204,0.058,0.948,0.793,1.892,1.038
-0.206,0.062,0.948,0.427,1.404,0.854
-0.208,0.063,0.954,0.854,1.892,0.244
-0.205,0.062,0.951,1.160,1.404,0.549
-0.205,0.062,0.948,0.671,1.099,0.549
-0.207,0.064,0.949,0.854,1.404,0.732
-0.207,0.064,0.950,1.038,1.587,0.977
-0.207,0.061,0.951,1.343,2.136,1.099
-0.209,0.060,0.947,0.977,1.648,1.038
-0.207,0.064,0.947,0.854,1.709,1.099
-0.205,0.066,0.952,0.732,1.831,1.282
-0.206,0.066,0.952,0.916,1.709,1.831
-0.204,0.065,0.950,0.977,1.953,1.831
-0.203,0.061,0.949,1.526,1.770,2.014
-0.206,0.061,0.950,0.732,1.831,1.648
-0.206,0.063,0.950,0.610,1.648,1.648
-0.204,0.063,0.952,1.343,1.831,1.465
-0.203,0.064,0.950,1.587,1.892,0.977
-0.206,0.061,0.946,0.977,1.587,0.854
-0.208,0.059,0.952,1.221,2.136,0.732
-0.208,0.059,0.948,1.526,1.953,0.732
-0.208,0.059,0.946,0.549,1.648,0.916
-0.209,0.063,0.951,0.305,1.770,0.488
-0.208,0.065,0.948,0.610,1.465,0.549
-0.207,0.068,0.949,0.427,2.319,0.977
-0.206,0.068,0.951,0.732,1.282,1.770
-0.201,0.064,0.949,0.671,1.404,2.075
-0.199,0.063,0.954,0.427,2.380,1.221
-0.205,0.065,0.953,1.404,1.770,0.854
-0.210,0.066,0.943,1.221,1.770,1.282
-0.209,0.062,0.952,0.916,1.892,2.014
-0.205,0.059,0.951,0.854,1.892,1.526
-0.205,0.062,0.950,0.732,1.648,1.038
-0.207,0.061,0.949,1.160,1.709,0.793
-0.209,0.063,0.947,0.977,2.197,0.671
-0.207,0.063,0.950,0.854,1.404,1.038
-0.207,0.062,0.948,0.854,1.343,1.099
-0.211,0.064,0.949,0.916,2.136,0.305
-0.209,0.068,0.950,0.732,1.160,0.916
-0.208,0.072,0.951,0.732,1.099,1.404
-0.203,0.063,0.951,1.526,1.953,1.709
-0.201,0.058,0.949,1.160,1.526,1.221
-0.206,0.060,0.949,1.221,1.709,0.549
-0.213,0.067,0.948,0.977,1.404,0.244
-0.215,0.071,0.945,0.854,2.258,0.916
-0.210,0.066,0.952,1.038,2.197,1.831
-0.203,0.060,0.950,0.854,1.709,2.136
-0.202,0.060,0.951,0.916,1.770,1.221
-0.206,0.069,0.949,0.610,1.709,0.732
-0.212,0.073,0.948,0.977,1.831,0.671
-0.211,0.068,0.950,1.221,2.930,1.831

-0.204,0.060,0.949,1.709,2.197,2.258
-0.203,0.058,0.950,0.854,2.319,1.648
-0.205,0.060,0.950,1.160,2.380,0.854
-0.209,0.066,0.949,1.282,1.770,0.061
-0.207,0.067,0.948,0.854,2.441,0.488
-0.205,0.065,0.951,0.793,1.953,0.549
-0.205,0.066,0.953,1.038,2.136,0.244
-0.208,0.067,0.950,1.709,1.892,0.122
-0.211,0.061,0.947,1.282,2.075,0.793
-0.208,0.063,0.950,0.488,1.282,0.793
-0.206,0.067,0.949,0.488,0.977,1.038
-0.204,0.064,0.948,0.488,1.953,1.526
-0.208,0.067,0.950,0.488,1.709,0.732
-0.210,0.070,0.950,0.732,2.197,0.854
-0.204,0.068,0.948,0.854,1.953,1.587
-0.204,0.066,0.950,0.671,2.014,0.610
-0.209,0.066,0.951,1.160,1.526,0.366
-0.210,0.069,0.946,1.526,2.258,0.916
-0.207,0.069,0.949,1.099,1.221,1.648
-0.207,0.068,0.949,0.977,2.380,0.854
-0.204,0.067,0.950,1.465,2.258,1.160
-0.206,0.065,0.949,1.465,1.953,1.099
-0.207,0.065,0.950,1.465,2.075,0.793
-0.203,0.063,0.950,1.282,2.075,0.610
-0.202,0.066,0.953,1.099,1.709,0.732
-0.203,0.064,0.951,2.258,1.770,0.183
-0.207,0.067,0.949,1.953,1.953,-0.366
-0.213,0.065,0.944,1.587,1.770,-0.061
-0.213,0.064,0.949,0.122,1.526,1.343
-0.206,0.071,0.957,0.549,1.587,1.587
-0.201,0.062,0.950,2.441,1.831,1.526
-0.200,0.056,0.948,1.831,2.380,0.854
-0.206,0.061,0.945,0.183,0.854,0.305
-0.208,0.073,0.951,0.122,1.282,0.671
-0.211,0.074,0.954,1.099,1.892,1.099
-0.211,0.068,0.949,2.075,2.258,1.709
-0.204,0.058,0.945,1.648,2.319,2.502
-0.205,0.062,0.950,0.000,1.526,1.404
-0.210,0.069,0.951,0.061,1.343,0.732
-0.206,0.073,0.951,0.732,1.465,1.160
-0.204,0.067,0.950,1.221,2.197,2.014
-0.204,0.059,0.951,1.099,1.709,1.587
-0.206,0.064,0.951,0.732,0.977,0.732
-0.209,0.073,0.950,0.793,1.770,1.160
-0.206,0.072,0.951,1.160,1.526,1.831
-0.205,0.065,0.953,1.953,1.831,2.014
-0.203,0.055,0.946,1.648,1.526,1.343
-0.208,0.055,0.946,1.038,1.648,0.305
-0.217,0.093,0.949,0.549,1.038,0.183
-0.218,0.072,0.946,0.977,1.953,0.671
-0.210,0.071,0.947,0.793,2.380,1.465
-0.202,0.065,0.955,0.488,2.686,2.014
-0.198,0.064,0.955,1.282,2.563,1.282
-0.202,0.061,0.946,1.221,2.136,0.977
-0.208,0.068,0.950,0.793,2.441,0.854
-0.211,0.074,0.952,0.671,1.709,1.587
-0.207,0.072,0.950,1.343,2.014,2.380
-0.204,0.062,0.950,1.648,2.319,2.075
-0.202,0.057,0.949,1.587,2.014,1.404
-0.205,0.060,0.947,1.160,1.892,0.366
-0.206,0.064,0.952,0.671,1.526,0.854
-0.208,0.066,0.947,0.977,1.709,0.854
-0.203,0.062,0.952,0.610,1.892,1.099
-0.204,0.061,0.954,0.854,1.221,0.549
-0.207,0.067,0.950,1.099,0.977,0.366
-0.210,0.074,0.948,1.587,1.770,0.488
-0.209,0.073,0.946,1.831,1.343,1.221
-0.208,0.065,0.949,2.258,2.197,1.526
-0.205,0.055,0.953,1.892,2.197,1.465
-0.205,0.055,0.953,1.892,1.465,0.549
-0.204,0.065,0.950,1.160,1.282,0.671
-0.208,0.066,0.946,1.892,1.709,0.610
-0.213,0.058,0.945,1.221,2.197,0.854
-0.216,0.054,0.943,1.099,1.587,0.854
-0.219,0.059,0.944,0.610,2.075,1.099
-0.214,0.065,0.946,-0.122,1.343,1.953
-0.205,0.066,0.950,0.122,2.136,2.258
-0.201,0.066,0.953,0.366,2.563,2.075
-0.201,0.063,0.957,0.305,2.563,1.343
-0.209,0.072,0.950,1.099,2.563,0.977
-0.210,0.070,0.947,0.854,2.686,2.136
-0.203,0.067,0.949,0.061,2.441,3.052
-0.197,0.063,0.955,0.061,1.770,2.869
-0.203,0.063,0.950,1.343,1.770,1.526
-0.208,0.067,0.950,1.343,1.526,1.160
-0.208,0.068,0.950,1.038,1.038,1.648
-0.208,0.065,0.948,0.854,1.160,1.282
-0.206,0.065,0.954,1.526,1.404,0.977
-0.202,0.065,0.951,2.197,1.526,1.160
-0.201,0.063,0.951,2.136,1.648,0.854
-0.207,0.062,0.948,2.686,1.892,0.122
-0.216,0.055,0.945,1.770,2.136,0.000
-0.220,0.055,0.944,0.916,1.160,0.183
-0.220,0.062,0.944,0.366,1.831,0.122
-0.210,0.063,0.950,0.122,1.587,1.099
-0.201,0.063,0.952,0.000,1.892,0.854
-0.203,0.067,0.954,0.916,2.441,0.122
-0.208,0.073,0.950,0.488,1.404,0.549
-0.210,0.071,0.950,1.343,1.953,2.197
-0.208,0.066,0.950,1.282,1.587,2.441

-0.208,0.061,0.947,1.221,2.319,2.380
-0.206,0.055,0.949,0.305,2.136,2.136
-0.209,0.060,0.951,0.122,1.770,1.526
-0.209,0.066,0.947,0.000,2.197,1.465
-0.206,0.066,0.951,0.305,1.892,1.587
-0.210,0.072,0.951,1.160,1.587,1.099
-0.209,0.062,0.946,1.648,2.502,1.221
-0.208,0.059,0.946,0.427,1.953,1.343
-0.208,0.060,0.951,0.488,1.953,1.526
-0.206,0.064,0.954,1.099,1.587,0.977
-0.205,0.072,0.949,1.465,0.854,0.732
-0.208,0.072,0.950,1.282,2.319,0.916
-0.207,0.068,0.952,1.709,1.648,1.404
-0.205,0.062,0.950,2.014,2.014,0.916
-0.203,0.059,0.950,1.709,2.075,1.038
-0.204,0.063,0.953,1.465,2.136,0.610
-0.204,0.067,0.952,1.526,0.793,0.244
-0.210,0.066,0.947,1.892,1.831,0.061
-0.215,0.063,0.948,2.014,2.563,0.427
-0.215,0.053,0.945,2.380,1.404,1.099
-0.212,0.046,0.943,1.404,2.625,0.854
-0.211,0.053,0.950,0.122,1.221,0.366
-0.209,0.065,0.948,-0.610,-0.061,0.183
-0.208,0.075,0.952,0.183,1.770,0.366
-0.208,0.074,0.953,1.160,2.014,0.854
-0.208,0.069,0.951,1.526,2.502,2.258
-0.206,0.059,0.950,1.099,2.441,2.686
-0.207,0.062,0.950,0.854,1.831,1.953
-0.209,0.066,0.950,0.549,1.953,1.404
-0.210,0.063,0.950,0.977,1.709,1.953
-0.213,0.057,0.949,1.648,2.686,1.892
-0.209,0.054,0.949,1.099,1.831,1.404
-0.209,0.061,0.949,0.427,2.258,1.221
-0.207,0.066,0.952,0.122,1.160,1.526
-0.206,0.066,0.953,0.854,2.319,0.854
-0.206,0.064,0.949,0.977,1.099,1.343
-0.208,0.060,0.950,1.404,2.319,1.038
-0.208,0.064,0.950,0.793,2.441,0.793
-0.210,0.068,0.950,1.221,2.625,0.977
-0.208,0.066,0.950,1.587,1.831,1.587
-0.206,0.061,0.951,0.916,1.892,1.221
-0.205,0.060,0.951,1.343,2.441,0.916
-0.207,0.060,0.947,1.038,1.648,0.854
-0.210,0.064,0.950,0.732,2.502,0.244
-0.213,0.068,0.951,0.061,1.465,0.610
-0.212,0.068,0.950,0.854,1.953,1.160
-0.208,0.064,0.950,0.732,1.770,1.709
-0.205,0.062,0.950,0.916,2.014,1.282
-0.206,0.062,0.948,1.160,2.319,0.977
-0.204,0.068,0.956,0.854,2.014,0.916
-0.207,0.068,0.948,1.831,1.770,1.038
-0.209,0.061,0.948,2.014,2.991,1.404
-0.209,0.060,0.950,1.343,2.380,1.221
-0.210,0.065,0.950,0.671,2.075,1.282
-0.208,0.064,0.953,0.549,1.404,1.465
-0.205,0.062,0.950,1.099,2.258,0.854
-0.204,0.063,0.950,1.404,1.770,0.916
-0.206,0.065,0.951,0.916,0.854,0.854
-0.208,0.067,0.949,0.977,1.648,0.977
-0.207,0.065,0.950,1.465,2.686,0.854
-0.208,0.063,0.952,1.282,1.099,1.160
-0.206,0.063,0.949,0.977,1.709,1.282
-0.204,0.061,0.951,0.671,0.977,1.343
-0.206,0.061,0.951,0.549,1.343,0.488
-0.209,0.064,0.948,0.610,1.038,0.549
-0.210,0.068,0.950,0.488,1.282,0.977
-0.209,0.066,0.950,1.282,2.502,1.221
-0.205,0.061,0.950,1.770,3.174,1.282
-0.204,0.057,0.950,0.732,2.441,0.793
-0.206,0.062,0.951,0.732,1.770,0.427
-0.210,0.068,0.951,0.244,1.831,0.549
-0.211,0.069,0.948,1.160,1.892,1.404
-0.208,0.064,0.953,0.793,2.319,1.526
-0.206,0.063,0.951,1.160,1.160,2.014
-0.205,0.064,0.949,1.221,2.258,1.343
-0.206,0.064,0.950,0.488,1.099,1.892
-0.207,0.064,0.947,0.671,1.709,1.282
-0.209,0.063,0.950,0.549,2.075,0.977
-0.210,0.067,0.950,0.732,1.404,0.916
-0.209,0.070,0.948,0.854,1.770,2.197
-0.205,0.067,0.952,1.099,2.197,2.136
-0.204,0.063,0.952,1.709,2.991,1.282
-0.208,0.062,0.948,1.587,1.648,1.282
-0.210,0.063,0.947,0.549,1.526,1.099
-0.209,0.064,0.949,0.183,1.587,1.404
-0.206,0.067,0.953,0.366,0.977,1.221
-0.206,0.065,0.947,0.854,0.732,1.221
-0.208,0.065,0.951,1.343,1.770,1.099
-0.210,0.065,0.948,0.854,1.587,0.977
-0.209,0.063,0.947,0.916,1.221,1.587
-0.208,0.062,0.952,0.671,2.014,0.793
-0.211,0.067,0.946,0.549,0.732,0.854
-0.210,0.068,0.947,0.183,1.404,1.160
-0.208,0.066,0.949,0.244,2.014,1.160
-0.209,0.066,0.950,1.404,2.563,0.916
-0.208,0.062,0.947,1.282,2.075,0.854
-0.210,0.063,0.948,1.160,1.953,0.916
-0.210,0.066,0.950,0.366,1.709,0.732
-0.209,0.068,0.950,0.305,0.916,1.038
-0.207,0.066,0.950,0.244,1.648,0.977

-0.208,0.067,0.950,1.160,2.747,0.793
-0.207,0.068,0.949,0.610,1.892,0.549
-0.208,0.067,0.949,0.488,2.747,1.038
-0.208,0.067,0.950,0.671,2.380,0.732
-0.207,0.069,0.950,0.183,1.465,1.160
-0.207,0.072,0.950,0.366,1.404,1.038
-0.210,0.069,0.953,1.526,2.625,0.854
-0.208,0.064,0.949,1.343,1.587,1.099
-0.211,0.061,0.943,1.282,1.465,1.160
-0.210,0.062,0.951,0.000,2.014,0.610
-0.211,0.071,0.949,-0.061,0.732,1.099
-0.210,0.075,0.947,0.305,1.709,0.977
-0.208,0.072,0.952,0.793,1.587,1.526
-0.208,0.070,0.950,1.709,1.953,1.038
-0.210,0.068,0.946,1.099,1.648,0.916
-0.210,0.069,0.946,0.549,1.770,1.221
-0.209,0.067,0.953,0.977,2.197,1.099
-0.210,0.068,0.949,0.916,1.831,0.977
-0.209,0.068,0.947,0.244,1.221,1.221
-0.208,0.068,0.951,0.183,1.709,1.099
-0.208,0.070,0.950,0.732,1.587,1.038
-0.211,0.073,0.947,0.793,1.831,0.732
-0.212,0.071,0.948,0.916,2.136,0.977
-0.209,0.068,0.950,1.160,2.258,1.404
-0.208,0.067,0.949,1.038,1.892,1.282
-0.209,0.070,0.950,0.732,1.526,1.160
-0.210,0.071,0.950,0.549,2.319,0.732
-0.212,0.072,0.947,0.854,2.380,0.610
-0.212,0.068,0.945,1.404,2.747,1.404
-0.208,0.068,0.952,0.549,2.014,1.770
-0.204,0.070,0.952,0.427,1.770,1.709
-0.203,0.075,0.951,0.671,2.014,0.916
-0.206,0.079,0.951,1.160,1.770,0.916
-0.208,0.076,0.950,1.709,1.526,1.404
-0.207,0.069,0.951,1.526,2.319,1.770
-0.209,0.064,0.948,2.014,2.136,1.221
-0.212,0.062,0.946,1.465,2.075,0.488
-0.211,0.069,0.946,0.610,1.465,0.427
-0.211,0.076,0.949,0.244,1.465,0.793
-0.208,0.073,0.953,0.854,2.075,0.977
-0.207,0.066,0.948,1.587,1.770,1.160
-0.209,0.066,0.947,0.916,1.953,1.099
-0.210,0.072,0.949,0.183,1.526,1.099
-0.213,0.072,0.950,0.610,2.319,1.160
-0.207,0.071,0.947,0.732,1.587,2.075
-0.203,0.070,0.951,0.305,2.014,1.709
-0.203,0.070,0.952,0.244,2.075,1.404
-0.204,0.075,0.949,0.244,1.465,1.343
-0.207,0.075,0.952,0.916,2.136,1.160
-0.209,0.073,0.949,1.282,1.831,1.404
-0.210,0.069,0.946,1.526,2.197,1.465
-0.208,0.070,0.949,0.916,1.831,1.038
-0.208,0.072,0.949,0.610,1.465,1.221
-0.206,0.072,0.948,0.916,1.770,1.038
-0.206,0.072,0.952,1.038,1.709,0.366
-0.206,0.070,0.948,1.160,1.221,0.427
-0.207,0.073,0.949,0.977,1.526,0.183
-0.210,0.076,0.950,1.099,1.404,0.793
-0.211,0.072,0.948,1.648,1.404,1.221
-0.209,0.069,0.948,1.282,1.648,1.099
-0.207,0.070,0.950,1.038,1.465,0.916
-0.209,0.074,0.950,0.916,1.038,0.793
-0.209,0.076,0.948,1.099,1.343,0.916
-0.209,0.073,0.950,1.526,1.648,1.038
-0.213,0.072,0.947,1.404,1.404,1.343
-0.213,0.070,0.947,1.404,1.709,1.343
-0.213,0.072,0.948,1.038,1.709,1.465
-0.213,0.074,0.950,1.282,2.075,1.465
-0.211,0.074,0.945,1.465,1.892,1.770
-0.209,0.069,0.950,1.282,1.892,1.465
-0.210,0.065,0.947,1.526,2.075,1.221
-0.214,0.067,0.948,0.916,1.892,0.916
-0.214,0.070,0.946,1.282,1.892,0.916
-0.213,0.076,0.947,0.977,2.136,1.404
-0.209,0.069,0.947,1.587,2.441,1.770
-0.205,0.061,0.949,1.709,2.441,1.160
-0.205,0.064,0.951,0.305,1.343,0.610
-0.207,0.077,0.951,0.854,1.404,-0.061
-0.209,0.078,0.949,1.526,1.587,0.000
-0.208,0.072,0.948,1.404,1.648,0.732
-0.208,0.069,0.952,1.160,1.770,0.732
-0.209,0.069,0.951,1.404,1.404,0.549
-0.206,0.072,0.950,1.160,1.160,0.732
-0.204,0.071,0.949,0.977,1.099,1.038
-0.207,0.068,0.950,1.343,1.465,0.244
-0.214,0.068,0.947,1.648,1.526,-0.183
-0.220,0.073,0.944,1.465,1.770,-0.244
-0.219,0.075,0.945,0.732,1.160,1.282
-0.212,0.067,0.947,0.854,2.197,2.014
-0.210,0.064,0.950,1.282,2.197,0.854
-0.216,0.067,0.943,1.160,1.892,0.671
-0.218,0.071,0.943,0.244,1.953,1.221
-0.214,0.072,0.948,-0.244,1.892,2.136
-0.205,0.073,0.950,0.122,1.831,2.686
-0.203,0.072,0.951,0.366,2.319,2.075
-0.207,0.074,0.953,0.916,2.258,1.160
-0.213,0.075,0.946,0.916,1.831,1.282
-0.212,0.074,0.948,0.916,2.014,1.709
-0.207,0.070,0.950,1.099,1.953,2.014
-0.205,0.070,0.948,1.282,1.831,1.465

-0.208,0.068,0.950,1.343,1.770,0.854
-0.211,0.071,0.947,0.977,1.648,0.732
-0.212,0.070,0.946,1.282,1.587,0.854
-0.213,0.071,0.948,0.671,1.404,0.671
-0.212,0.072,0.949,0.793,1.709,0.549
-0.212,0.072,0.947,1.160,1.526,0.366
-0.213,0.073,0.948,0.977,1.526,0.732
-0.211,0.073,0.948,1.038,1.953,1.404
-0.208,0.071,0.949,1.038,2.014,1.526
-0.210,0.072,0.949,1.160,2.014,0.977
-0.211,0.073,0.947,1.099,1.648,1.160
-0.209,0.073,0.947,0.549,1.526,1.465
-0.211,0.073,0.950,1.160,1.770,1.282
-0.213,0.072,0.949,1.465,1.709,1.282
-0.213,0.071,0.945,1.465,2.136,1.404
-0.213,0.070,0.949,1.038,1.770,1.404
-0.210,0.071,0.948,0.916,1.343,1.404
-0.210,0.069,0.949,1.221,1.831,1.099
-0.212,0.068,0.947,1.160,1.770,0.732
-0.213,0.071,0.945,1.038,1.648,0.671
-0.213,0.075,0.950,0.977,1.465,0.671
-0.212,0.075,0.946,0.977,1.404,1.282
-0.210,0.072,0.950,1.221,2.197,1.099
-0.211,0.069,0.948,1.465,1.770,0.732
-0.214,0.068,0.943,1.160,1.770,0.488
-0.216,0.072,0.949,0.305,1.404,0.854
-0.215,0.076,0.948,0.732,1.221,1.343
-0.212,0.075,0.949,1.099,1.831,1.587
-0.212,0.073,0.947,1.465,2.075,1.343
-0.211,0.068,0.947,1.160,2.197,1.282
-0.212,0.070,0.950,0.854,1.465,0.854
-0.214,0.077,0.945,0.854,1.404,0.854
-0.213,0.076,0.948,0.916,1.770,1.221
-0.214,0.069,0.947,1.465,2.014,1.465
-0.212,0.066,0.947,1.465,2.258,0.977
-0.213,0.068,0.949,1.160,1.892,0.488
-0.214,0.071,0.945,0.732,1.465,0.793
-0.214,0.074,0.950,0.977,1.648,0.854
-0.213,0.075,0.946,0.977,1.831,1.221
-0.212,0.071,0.946,0.854,1.892,1.587
-0.214,0.071,0.948,0.732,1.709,1.038
-0.214,0.073,0.949,0.671,1.831,0.732
-0.214,0.076,0.949,0.977,1.587,1.282
-0.213,0.074,0.949,1.282,1.587,1.892
-0.210,0.071,0.949,1.404,1.709,1.587
-0.211,0.069,0.946,1.160,1.770,0.977
-0.215,0.070,0.948,1.099,1.709,1.038
-0.215,0.071,0.947,0.916,1.709,1.099
-0.216,0.071,0.946,0.977,1.526,1.221
-0.213,0.070,0.945,0.977,1.770,1.099
-0.212,0.071,0.950,0.732,1.587,0.977
-0.212,0.073,0.947,0.793,1.770,1.038
-0.214,0.074,0.948,0.977,1.709,0.977
-0.214,0.074,0.949,1.099,1.770,1.282
-0.212,0.070,0.949,1.343,2.014,1.221
-0.213,0.072,0.947,1.099,2.014,1.038
-0.214,0.073,0.948,1.099,1.648,1.160
-0.212,0.071,0.946,1.282,1.892,1.160
-0.215,0.070,0.947,1.221,2.014,0.854
-0.216,0.071,0.945,1.038,1.709,1.038
-0.215,0.072,0.946,0.732,1.770,1.404
-0.213,0.072,0.951,0.977,1.831,1.099
-0.214,0.071,0.947,1.343,1.892,0.793
-0.215,0.071,0.945,0.854,1.648,1.221
-0.214,0.072,0.949,0.549,1.648,1.587
-0.210,0.071,0.950,1.160,1.648,1.099
-0.213,0.074,0.947,1.282,1.953,0.671
-0.215,0.075,0.946,1.038,1.648,0.854
-0.215,0.074,0.948,1.038,1.953,1.343
-0.217,0.071,0.949,0.793,1.770,1.770
-0.211,0.065,0.946,0.549,1.953,1.831
-0.212,0.068,0.952,1.038,1.953,0.183
-0.218,0.077,0.947,1.343,1.404,-0.122
-0.219,0.079,0.944,0.916,2.014,0.977
-0.216,0.074,0.948,0.916,2.014,1.770
-0.210,0.068,0.949,1.282,2.014,1.526
-0.211,0.069,0.948,0.977,1.953,0.916
-0.213,0.073,0.950,0.793,1.831,0.549
-0.215,0.076,0.949,0.916,1.465,1.160
-0.214,0.072,0.948,1.099,2.014,1.404
-0.214,0.071,0.950,0.977,1.831,1.526
-0.214,0.069,0.947,0.854,1.648,1.282
-0.214,0.071,0.948,0.854,1.648,0.793
-0.216,0.074,0.948,0.732,1.465,0.916
-0.218,0.074,0.946,1.160,1.953,1.160
-0.217,0.075,0.948,0.977,1.953,1.038
-0.215,0.072,0.949,1.343,1.953,1.587
-0.212,0.067,0.948,1.587,2.197,1.587
-0.213,0.065,0.946,1.038,2.014,0.977
-0.216,0.071,0.948,1.038,2.014,0.183
-0.217,0.075,0.947,0.916,1.648,0.671
-0.215,0.074,0.946,1.221,2.014,1.099
-0.215,0.071,0.947,1.099,2.258,1.160
-0.214,0.070,0.947,0.732,2.075,1.343
-0.210,0.071,0.949,0.854,2.014,1.343
-0.214,0.075,0.950,0.732,1.770,1.221
-0.215,0.075,0.947,0.977,1.831,1.587
-0.212,0.072,0.948,1.221,2.075,1.587
-0.215,0.070,0.949,1.282,2.014,1.343
-0.215,0.071,0.947,1.465,1.953,1.404

-0.211,0.072,0.947,1.282,2.014,1.526
-0.211,0.071,0.950,1.099,1.892,1.038
-0.215,0.070,0.950,1.587,2.014,0.977
-0.215,0.069,0.946,1.648,2.136,0.916
-0.215,0.070,0.946,0.977,1.709,1.038
-0.215,0.072,0.952,0.732,1.709,1.099
-0.211,0.073,0.946,1.099,1.282,0.977
-0.211,0.074,0.947,1.099,1.831,0.916
-0.213,0.070,0.949,1.099,2.136,0.854
-0.215,0.071,0.946,1.221,1.709,1.038
-0.214,0.071,0.946,0.977,2.136,1.160
-0.214,0.071,0.949,0.977,1.831,1.099
-0.213,0.071,0.950,0.916,1.892,1.038
-0.213,0.071,0.948,0.977,1.587,0.916
-0.214,0.072,0.947,0.977,1.892,0.916
-0.213,0.070,0.950,1.099,2.014,1.099
-0.214,0.071,0.946,0.732,1.343,1.160
-0.214,0.072,0.948,0.854,1.953,0.854
-0.214,0.073,0.949,0.793,1.770,0.732
-0.214,0.075,0.948,0.854,2.014,1.099
-0.211,0.072,0.948,0.793,1.831,1.404
-0.211,0.070,0.951,0.854,2.075,1.282
-0.215,0.072,0.948,1.160,1.709,0.916
-0.218,0.076,0.946,0.793,1.282,1.099
-0.215,0.074,0.948,0.732,1.892,1.709
-0.214,0.068,0.950,1.160,2.197,1.404
-0.216,0.068,0.945,1.160,1.709,1.038
-0.215,0.073,0.946,-0.061,1.770,0.854
-0.214,0.077,0.951,0.366,1.465,1.221
-0.215,0.077,0.949,1.160,2.502,1.282
-0.214,0.072,0.945,0.793,2.075,0.854
-0.216,0.071,0.948,0.610,1.648,0.732
-0.219,0.078,0.949,0.610,1.770,0.916
-0.215,0.079,0.950,0.549,1.709,1.709
-0.212,0.074,0.951,1.343,2.258,1.404
-0.212,0.070,0.949,1.038,1.953,0.977
-0.213,0.070,0.946,0.977,1.892,0.671
-0.216,0.076,0.949,0.610,1.404,0.610
-0.217,0.081,0.948,0.549,1.404,1.282
-0.210,0.075,0.948,1.099,2.197,1.892
-0.212,0.072,0.951,1.099,2.075,1.526
-0.215,0.075,0.948,1.404,1.404,1.038
-0.214,0.078,0.945,1.099,1.892,1.160
-0.217,0.072,0.949,1.343,1.953,1.465
-0.216,0.068,0.947,1.587,1.709,1.709
-0.214,0.071,0.946,0.854,1.404,1.282
-0.212,0.079,0.950,0.793,1.221,0.916
-0.216,0.081,0.947,1.160,1.526,1.465
-0.216,0.077,0.945,2.014,2.502,1.892
-0.217,0.071,0.950,2.197,2.380,1.709
-0.216,0.065,0.945,1.038,1.953,1.648
-0.214,0.069,0.946,0.854,1.587,1.465
-0.213,0.074,0.950,0.427,1.465,1.038
-0.215,0.080,0.949,1.038,1.892,1.099
-0.215,0.076,0.948,1.709,2.625,1.038
-0.213,0.068,0.949,1.831,2.380,1.465
-0.212,0.063,0.946,1.282,1.831,1.099
-0.211,0.066,0.949,0.732,1.709,0.488
-0.217,0.076,0.946,0.122,1.526,0.122
-0.214,0.077,0.947,0.000,1.343,1.160
-0.213,0.075,0.954,0.854,2.136,0.427
-0.215,0.073,0.950,1.831,2.197,0.427
-0.214,0.076,0.945,0.916,1.404,1.160
-0.214,0.082,0.946,-15.320,1.709,1.709
-0.212,0.081,0.954,0.916,1.465,2.258
-0.214,0.075,0.950,2.319,2.991,1.343
-0.215,0.071,0.943,1.343,2.014,1.770
-0.212,0.068,0.946,0.854,1.892,2.258
-0.211,0.072,0.952,0.671,1.526,1.526
-0.215,0.075,0.950,1.343,1.465,0.977
-0.215,0.075,0.945,1.343,1.648,0.977
-0.216,0.072,0.948,0.916,1.526,0.916
-0.215,0.074,0.946,0.793,0.977,1.038
-0.215,0.074,0.947,1.038,1.892,0.610
-0.216,0.073,0.949,1.160,2.380,0.366
-0.218,0.072,0.943,1.343,1.770,0.916
-0.216,0.073,0.946,0.549,1.587,0.916
-0.216,0.077,0.950,0.366,1.343,0.916
-0.213,0.079,0.949,0.793,1.221,1.099
-0.211,0.073,0.950,1.404,2.441,1.221
-0.212,0.073,0.947,1.404,1.770,0.854
-0.217,0.076,0.944,0.793,1.648,0.916
-0.215,0.074,0.949,0.671,1.831,1.526
-0.214,0.072,0.949,1.099,1.526,1.465
-0.215,0.071,0.946,1.282,1.648,1.221
-0.216,0.077,0.946,0.366,1.465,1.038
-0.216,0.077,0.948,0.427,1.770,1.282
-0.214,0.076,0.950,1.404,2.380,1.160
-0.216,0.070,0.943,1.221,2.014,1.526
-0.214,0.066,0.946,0.427,1.892,1.526
-0.216,0.073,0.952,0.366,2.014,0.183
-0.218,0.081,0.945,1.099,1.770,0.549
-0.215,0.082,0.945,1.099,1.953,1.648
-0.214,0.075,0.953,1.343,2.258,2.014
-0.211,0.070,0.947,1.587,2.075,1.465
-0.213,0.070,0.947,1.160,1.709,1.099
-0.214,0.073,0.946,0.854,1.282,1.343
-0.216,0.078,0.950,0.671,1.648,1.038
-0.217,0.080,0.949,0.977,1.892,1.160
-0.217,0.077,0.944,1.648,1.892,1.648

-0.215,0.071,0.947,1.221,1.770,1.526
-0.214,0.070,0.948,1.038,1.526,1.038
-0.214,0.071,0.949,0.732,1.648,0.671
-0.215,0.074,0.946,1.160,1.404,0.610
-0.218,0.079,0.946,0.793,1.038,0.793
-0.218,0.079,0.948,1.282,1.648,1.343
-0.216,0.073,0.944,1.831,2.136,1.160
-0.214,0.070,0.949,1.343,2.197,0.854
-0.215,0.070,0.949,1.038,1.465,1.038
-0.213,0.071,0.947,1.465,1.892,0.732
-0.216,0.078,0.947,1.587,1.160,0.427
-0.217,0.078,0.946,1.038,1.648,0.854
-0.217,0.076,0.949,1.099,1.892,0.854
-0.216,0.073,0.946,1.465,2.197,0.977
-0.216,0.070,0.945,1.099,1.709,1.404
-0.215,0.069,0.947,0.671,1.770,0.854
-0.217,0.072,0.948,0.671,1.343,0.793
-0.215,0.075,0.945,0.732,1.526,0.854
-0.213,0.077,0.949,0.671,1.831,0.854
-0.217,0.077,0.947,1.221,1.648,0.732
-0.219,0.074,0.945,1.526,2.014,0.916
-0.218,0.073,0.948,1.038,1.770,1.526
-0.211,0.067,0.950,1.282,2.014,1.526
-0.211,0.070,0.951,1.404,1.770,0.122
-0.218,0.078,0.943,0.977,1.526,0.122
-0.219,0.079,0.946,0.671,1.709,0.977
-0.218,0.075,0.950,1.343,2.136,1.404
-0.212,0.068,0.946,1.587,2.075,1.404
-0.210,0.068,0.947,0.977,2.258,0.854
-0.214,0.072,0.950,0.427,1.160,0.488
-0.219,0.076,0.946,0.488,1.709,0.610
-0.219,0.077,0.946,0.793,2.319,0.427
-0.217,0.072,0.948,1.404,1.953,1.343
-0.214,0.072,0.948,0.671,1.587,1.465
-0.215,0.073,0.946,0.488,1.404,1.282
-0.215,0.074,0.948,0.549,1.831,1.160
-0.216,0.077,0.948,0.793,1.892,0.793
-0.216,0.075,0.946,0.671,1.587,1.465
-0.213,0.073,0.950,0.793,1.709,1.709
-0.212,0.072,0.948,0.793,1.465,1.221
-0.215,0.073,0.947,0.854,2.136,0.732
-0.218,0.075,0.948,0.732,1.892,0.732
-0.219,0.078,0.947,0.488,1.526,1.282
-0.218,0.076,0.945,1.099,1.770,1.892
-0.212,0.071,0.951,0.977,2.441,1.038
-0.214,0.071,0.945,1.099,1.465,0.977
-0.217,0.074,0.946,0.610,1.831,0.793
-0.217,0.078,0.950,0.427,1.282,0.854
-0.214,0.080,0.947,1.038,1.892,1.343
-0.214,0.076,0.948,1.343,2.136,1.831
-0.212,0.070,0.946,1.038,1.709,1.465
-0.213,0.071,0.947,1.221,2.075,0.793
-0.216,0.076,0.946,0.305,1.282,0.916
-0.217,0.078,0.948,0.488,2.563,0.671
-0.216,0.078,0.947,1.099,1.831,1.038
-0.214,0.074,0.948,1.099,1.709,1.404
-0.213,0.073,0.947,1.038,2.197,1.282
-0.213,0.075,0.947,0.793,0.977,1.282
-0.214,0.077,0.949,0.732,1.892,1.038
-0.217,0.076,0.946,0.916,1.526,1.038
-0.217,0.077,0.946,0.671,2.380,1.099
-0.214,0.077,0.947,0.671,1.587,1.587
-0.214,0.075,0.947,0.732,1.892,1.343
-0.213,0.075,0.948,0.854,2.075,0.977
-0.213,0.077,0.948,0.793,1.465,0.793
-0.216,0.078,0.946,1.038,1.770,1.038
-0.215,0.079,0.948,0.916,2.075,1.099
-0.215,0.078,0.948,0.916,1.709,1.587
-0.214,0.072,0.949,1.343,2.197,1.160
-0.215,0.071,0.948,1.221,2.014,0.854
-0.218,0.076,0.945,0.732,1.282,0.671
-0.215,0.081,0.948,0.366,1.892,1.343
-0.216,0.079,0.950,0.916,1.953,1.343
-0.214,0.074,0.947,1.831,1.892,1.648
-0.213,0.071,0.947,0.732,2.075,0.916
-0.216,0.080,0.949,0.732,1.343,1.160
-0.216,0.080,0.946,0.793,2.258,1.282
-0.213,0.078,0.949,1.526,1.831,1.587
-0.215,0.075,0.946,0.793,1.953,1.160
-0.214,0.075,0.947,1.282,1.892,1.404
-0.215,0.077,0.946,0.916,1.282,1.099
-0.213,0.079,0.945,0.427,1.343,1.404
-0.213,0.077,0.951,0.793,2.258,1.221
-0.214,0.078,0.950,0.916,1.526,0.854
-0.213,0.080,0.946,0.854,1.404,1.404
-0.213,0.077,0.948,1.343,2.563,0.977
-0.215,0.075,0.947,1.648,1.831,0.732
-0.219,0.076,0.943,1.404,1.465,0.854
-0.218,0.077,0.944,0.854,1.465,1.221
-0.215,0.075,0.950,0.977,1.404,0.977
-0.214,0.074,0.945,1.160,1.587,0.793
-0.215,0.075,0.946,1.038,2.136,0.488
-0.215,0.076,0.950,0.366,1.221,0.793
-0.216,0.079,0.946,1.282,2.197,0.916
-0.216,0.078,0.947,0.793,1.892,1.099
-0.215,0.077,0.950,1.099,1.709,1.282
-0.214,0.078,0.947,1.221,1.221,1.404
-0.213,0.076,0.947,0.977,1.465,1.343
-0.211,0.074,0.948,0.854,1.160,1.221
-0.215,0.080,0.950,0.488,1.526,0.610

-0.218,0.080,0.949,1.587,1.831,0.305
-0.221,0.077,0.942,2.380,2.380,1.160
-0.219,0.066,0.945,1.160,1.587,1.099
-0.218,0.067,0.946,1.160,1.831,0.977
-0.219,0.082,0.947,-0.061,1.282,0.122
-0.219,0.090,0.949,0.732,1.282,1.038
-0.216,0.082,0.948,1.648,2.686,2.014
-0.212,0.066,0.943,1.404,2.441,2.258
-0.213,0.068,0.949,0.366,0.916,1.038
-0.222,0.084,0.948,0.610,1.099,0.488
-0.224,0.088,0.945,1.343,1.709,1.465
-0.214,0.074,0.946,2.258,2.319,2.258
-0.211,0.064,0.947,1.648,2.136,1.465
-0.214,0.067,0.946,0.732,1.587,0.427
-0.223,0.079,0.946,0.610,1.648,-0.183
-0.226,0.086,0.946,1.343,1.831,1.160
-0.218,0.077,0.947,1.648,2.258,2.136
-0.212,0.066,0.949,1.892,2.319,1.770
-0.210,0.064,0.947,1.038,1.648,0.793
-0.215,0.074,0.946,0.977,1.465,0.000
-0.220,0.086,0.947,0.305,1.099,0.549
-0.218,0.081,0.949,1.526,2.502,1.160
-0.213,0.071,0.948,1.953,1.587,1.709
-0.214,0.067,0.947,1.038,1.282,1.465
-0.218,0.081,0.949,0.671,0.854,0.366
-0.220,0.082,0.947,2.136,2.502,0.427
-0.215,0.073,0.947,2.197,2.441,1.770
-0.213,0.067,0.948,1.404,2.136,1.282
-0.214,0.065,0.946,1.465,2.380,0.366
-0.216,0.070,0.947,0.977,1.831,0.305
-0.220,0.077,0.945,1.099,1.648,0.488
-0.221,0.078,0.947,1.709,2.869,0.549
-0.218,0.074,0.947,1.282,2.808,1.160
-0.213,0.073,0.949,0.549,1.709,2.136
-0.210,0.072,0.951,1.038,2.075,1.587
-0.214,0.076,0.947,1.526,2.502,0.427
-0.221,0.078,0.946,1.343,1.953,1.221
-0.219,0.071,0.945,1.587,2.747,1.648
-0.213,0.061,0.949,1.038,1.892,1.831
-0.210,0.059,0.949,1.160,2.014,0.916
-0.212,0.066,0.948,0.793,1.282,0.000
-0.215,0.076,0.946,0.000,1.526,-0.549
-0.219,0.086,0.949,0.244,1.465,0.671
-0.218,0.083,0.950,1.099,1.282,1.648
-0.212,0.071,0.949,2.625,3.052,1.831
-0.208,0.061,0.948,1.892,2.625,1.587
-0.210,0.059,0.949,0.793,1.160,0.854
-0.218,0.075,0.945,0.061,0.671,0.366
-0.219,0.085,0.948,-0.183,0.549,0.549
-0.218,0.085,0.951,0.793,2.014,1.465
-0.214,0.074,0.947,1.770,2.625,1.892
-0.211,0.068,0.949,0.732,2.075,1.953
-0.212,0.068,0.947,0.610,1.343,1.892
-0.216,0.072,0.946,0.305,1.526,1.465
-0.218,0.078,0.946,0.061,1.221,1.038
-0.219,0.079,0.946,0.671,1.892,1.465
-0.215,0.072,0.948,0.488,2.380,1.770
-0.215,0.066,0.948,0.549,1.831,1.465
-0.215,0.069,0.946,0.305,2.502,0.732
-0.218,0.077,0.946,-0.366,0.916,0.977
-0.218,0.082,0.948,0.061,1.831,1.038
-0.213,0.078,0.949,0.366,2.319,1.038
-0.209,0.076,0.950,0.061,1.099,1.160
-0.210,0.074,0.950,0.366,1.343,0.916
-0.211,0.076,0.948,0.732,1.282,0.854
-0.215,0.078,0.949,0.610,1.160,0.916
-0.218,0.080,0.949,0.671,1.099,1.099
-0.215,0.077,0.946,1.221,1.709,1.465
-0.214,0.073,0.949,0.916,2.319,0.916
-0.215,0.073,0.947,1.038,2.014,0.488
-0.217,0.078,0.946,0.916,1.526,1.038
-0.215,0.079,0.950,0.916,1.953,1.160
-0.215,0.078,0.950,1.465,2.625,0.854
-0.214,0.074,0.944,1.953,2.136,1.404
-0.212,0.069,0.945,0.183,1.465,1.404
-0.214,0.075,0.951,-0.122,1.099,0.916
-0.214,0.080,0.948,0.183,1.648,0.671
-0.215,0.082,0.946,0.732,1.099,1.343
-0.215,0.081,0.949,0.549,1.404,1.404
-0.216,0.079,0.948,0.488,1.099,1.343
-0.213,0.073,0.946,1.404,2.930,1.343
-0.212,0.073,0.948,0.488,1.953,1.099
-0.214,0.078,0.946,0.427,1.709,0.916
-0.214,0.082,0.948,0.183,1.587,0.854
-0.214,0.082,0.950,1.526,1.648,1.953
-0.215,0.075,0.946,0.732,2.563,1.465
-0.212,0.072,0.950,1.099,1.648,1.587
-0.214,0.078,0.948,1.343,1.648,0.732
-0.217,0.083,0.945,0.183,0.854,1.160
-0.215,0.080,0.947,0.854,2.014,2.014
-0.214,0.076,0.948,1.282,1.465,1.343
-0.216,0.074,0.946,1.221,2.136,0.671
-0.215,0.074,0.946,0.549,1.526,0.916
-0.211,0.070,0.952,0.427,1.343,0.549
-0.215,0.078,0.953,0.671,0.854,0.671
-0.217,0.085,0.942,1.221,1.465,1.160
-0.219,0.085,0.945,1.404,2.075,1.404
-0.215,0.079,0.948,0.854,0.793,2.014
-0.213,0.074,0.946,1.282,1.892,1.221
-0.213,0.076,0.948,0.977,2.319,0.549

-0.217,0.079,0.946,0.732,1.160,0.671
-0.218,0.082,0.949,0.427,1.221,1.038
-0.217,0.079,0.945,0.732,0.916,1.099
-0.214,0.077,0.946,1.099,2.258,1.099
-0.216,0.078,0.947,0.427,1.526,0.549
-0.219,0.080,0.943,1.099,1.770,0.977
-0.219,0.081,0.947,0.549,2.502,1.099
-0.218,0.082,0.947,1.038,1.404,1.526
-0.215,0.077,0.945,1.099,1.221,1.770
-0.214,0.074,0.947,1.343,2.441,1.282
-0.216,0.078,0.947,0.732,1.221,1.038
-0.219,0.084,0.948,0.122,1.038,0.977
-0.217,0.085,0.947,0.977,2.197,1.526
-0.215,0.081,0.947,0.977,2.075,1.831
-0.213,0.077,0.946,1.160,1.831,1.587
-0.215,0.076,0.947,1.282,2.014,1.038
-0.217,0.078,0.946,1.221,2.136,0.732
-0.219,0.083,0.946,0.916,2.197,1.099
-0.217,0.083,0.948,0.366,1.038,2.136
-0.212,0.077,0.947,1.221,2.319,1.526
-0.213,0.073,0.948,1.526,2.380,0.793
-0.218,0.076,0.941,0.671,1.038,0.610
-0.219,0.083,0.948,0.122,1.648,0.305
-0.220,0.086,0.948,0.427,1.160,0.732
-0.217,0.084,0.946,1.099,1.465,1.465
-0.216,0.079,0.946,1.221,2.136,1.465
-0.217,0.075,0.946,1.038,2.197,0.732
-0.218,0.079,0.945,0.732,2.075,0.549
-0.219,0.088,0.946,0.488,1.648,1.038
-0.217,0.086,0.949,1.038,1.770,1.404
-0.215,0.077,0.945,2.014,2.136,1.343
-0.216,0.072,0.945,1.709,1.526,1.038
-0.220,0.075,0.944,0.732,1.099,0.793
-0.223,0.085,0.946,0.427,1.038,0.549
-0.222,0.087,0.943,0.732,1.221,1.343
-0.214,0.078,0.948,1.465,2.319,1.221
-0.215,0.075,0.947,1.709,1.404,1.221
-0.217,0.077,0.944,1.404,1.526,0.488
-0.220,0.082,0.948,1.038,1.465,0.671
-0.222,0.088,0.945,1.038,1.526,1.160
-0.218,0.083,0.946,1.526,1.831,1.648
-0.215,0.076,0.949,1.770,2.136,1.770
-0.215,0.075,0.945,1.160,1.282,1.404
-0.216,0.078,0.946,1.099,1.343,0.854
-0.219,0.083,0.948,1.343,2.014,0.916
-0.219,0.083,0.944,1.099,0.916,1.526
-0.218,0.078,0.944,1.343,1.648,1.160
-0.216,0.076,0.949,1.709,1.709,0.916
-0.217,0.075,0.944,1.465,1.404,1.099
-0.217,0.075,0.945,0.916,0.916,1.160
-0.218,0.076,0.946,1.221,1.709,0.244
-0.222,0.082,0.944,1.526,1.465,0.671
-0.220,0.080,0.947,1.465,2.625,1.038
-0.218,0.078,0.946,1.404,2.686,0.977
-0.217,0.082,0.948,1.648,1.282,1.160
-0.217,0.076,0.946,2.197,2.075,1.099
-0.219,0.072,0.943,1.221,1.648,1.526
-0.220,0.074,0.944,1.038,2.319,0.977
-0.219,0.073,0.949,0.793,1.709,0.916
-0.216,0.072,0.949,0.916,1.587,0.671
-0.216,0.077,0.944,0.671,1.221,0.854
-0.215,0.078,0.948,0.244,1.709,0.549
-0.218,0.079,0.947,0.671,1.831,0.244
-0.218,0.081,0.945,1.038,1.343,1.221
-0.215,0.080,0.949,0.244,1.465,1.038
-0.216,0.080,0.947,0.854,1.343,1.038
-0.220,0.079,0.943,1.343,2.502,1.282
-0.217,0.076,0.948,1.099,1.099,1.648
-0.220,0.077,0.945,0.977,1.099,1.770
-0.218,0.075,0.946,0.671,1.648,1.221
-0.218,0.074,0.948,0.671,1.465,0.854
-0.218,0.071,0.947,1.831,1.465,1.099
-0.219,0.067,0.945,1.282,2.136,0.854
-0.219,0.067,0.946,-0.061,1.892,-0.061
-0.223,0.076,0.940,-0.122,1.587,-0.671
-0.227,0.091,0.945,-0.732,1.587,-0.244
-0.225,0.093,0.949,-0.244,0.977,1.526
-0.216,0.081,0.947,1.343,1.892,2.502
-0.209,0.072,0.947,1.160,2.197,1.709
-0.213,0.078,0.947,0.427,1.648,1.099
-0.219,0.086,0.950,0.549,1.343,1.038
-0.220,0.087,0.947,1.099,2.014,1.282
-0.220,0.075,0.944,1.587,2.136,2.014
-0.219,0.068,0.946,1.099,2.502,1.831
-0.218,0.068,0.948,0.488,1.526,1.282
-0.219,0.078,0.945,0.427,1.221,0.427
-0.221,0.086,0.946,0.366,1.709,0.671
-0.218,0.084,0.946,0.549,1.953,1.526
-0.215,0.081,0.949,0.854,2.136,1.953
-0.212,0.077,0.950,1.099,1.953,1.831
-0.213,0.078,0.947,0.732,1.404,1.526
-0.215,0.082,0.948,0.488,1.648,1.038
-0.219,0.085,0.949,0.977,1.587,1.038
-0.222,0.084,0.946,1.587,1.953,1.526
-0.221,0.076,0.944,1.770,1.526,2.014
-0.217,0.072,0.945,0.916,2.136,1.404
-0.219,0.076,0.946,1.343,2.136,0.793
-0.222,0.079,0.943,1.160,1.709,0.732
-0.221,0.079,0.947,0.610,1.282,1.038
-0.217,0.079,0.947,0.610,1.343,0.793

-0.218,0.082,0.946,1.526,1.709,0.732
-0.219,0.080,0.946,0.977,2.258,0.916
-0.219,0.079,0.946,0.671,1.282,1.282
-0.222,0.079,0.946,1.160,1.892,0.916
-0.218,0.077,0.945,0.732,1.709,0.977
-0.219,0.081,0.948,0.732,1.648,1.465
-0.219,0.084,0.946,0.977,1.770,1.099
-0.217,0.082,0.948,1.404,2.136,0.916
-0.219,0.075,0.946,1.892,2.075,1.465
-0.218,0.073,0.944,1.160,1.892,1.343
-0.219,0.079,0.945,0.488,1.465,0.977
-0.222,0.084,0.949,0.610,1.587,1.160
-0.220,0.082,0.946,1.831,2.563,1.465
-0.219,0.078,0.946,1.587,2.075,1.709
-0.216,0.073,0.945,1.099,2.319,1.099
-0.219,0.076,0.945,0.977,1.648,0.732
-0.221,0.083,0.948,0.610,1.831,0.549
-0.221,0.085,0.947,1.343,1.709,0.977
-0.219,0.079,0.945,1.343,1.709,1.526
-0.216,0.075,0.944,1.404,2.136,1.526
-0.216,0.075,0.950,0.610,1.465,0.793
-0.220,0.082,0.947,1.221,1.343,0.305
-0.223,0.086,0.943,1.099,1.587,0.854
-0.220,0.083,0.945,0.916,1.770,1.404
-0.219,0.077,0.949,1.465,1.526,1.282
-0.218,0.075,0.945,1.770,1.404,0.732
-0.219,0.076,0.948,1.343,1.831,0.427
-0.220,0.080,0.946,1.099,0.854,0.916
-0.221,0.080,0.945,1.099,1.465,0.854
-0.222,0.077,0.945,1.160,2.197,0.671
-0.220,0.074,0.946,1.465,1.221,0.916
-0.223,0.075,0.945,1.343,1.404,0.610
-0.223,0.075,0.944,0.793,1.221,0.793
-0.220,0.077,0.946,0.427,1.404,0.854
-0.223,0.080,0.946,0.916,1.953,0.549
-0.225,0.081,0.937,0.610,2.014,0.488
-0.222,0.079,0.946,-0.549,1.404,1.831
-0.220,0.083,0.950,0.610,1.648,1.221
-0.219,0.080,0.948,2.197,2.441,1.038
-0.221,0.083,0.944,1.099,1.953,1.221
-0.220,0.085,0.944,0.000,1.587,2.075
-0.216,0.080,0.950,0.427,2.441,2.258
-0.216,0.071,0.946,1.770,2.380,1.465
-0.218,0.071,0.943,1.099,2.014,0.793
-0.222,0.077,0.942,0.305,1.099,0.549
-0.225,0.085,0.946,-0.244,0.732,0.671
-0.225,0.087,0.947,1.404,1.526,1.221
-0.223,0.081,0.945,1.770,2.319,1.709
-0.217,0.075,0.946,1.465,2.258,2.319
-0.215,0.076,0.950,0.305,2.197,0.977
-0.217,0.082,0.948,0.793,2.563,0.122
-0.223,0.084,0.943,1.160,1.038,0.732
-0.223,0.083,0.945,1.343,3.113,0.854
-0.221,0.077,0.946,0.916,2.258,1.221
-0.220,0.076,0.944,0.977,2.014,1.038
-0.219,0.080,0.945,1.343,2.441,0.854
-0.219,0.082,0.946,0.854,1.160,1.282
-0.220,0.081,0.946,1.221,1.465,1.282
-0.221,0.078,0.946,0.549,1.709,0.732
-0.221,0.077,0.944,0.977,1.648,1.099
-0.221,0.080,0.946,0.488,2.075,1.282
-0.219,0.083,0.947,0.854,1.465,1.343
-0.221,0.086,0.944,1.404,1.831,1.465
-0.218,0.084,0.945,0.793,2.258,1.404
-0.215,0.079,0.948,1.221,1.770,1.831
-0.249,0.081,0.948,1.465,1.526,0.977
-0.221,0.082,0.944,1.465,1.831,0.427
-0.222,0.082,0.946,0.916,2.380,0.916
-0.221,0.081,0.947,0.977,1.831,1.587
-0.219,0.077,0.946,1.160,1.831,0.977
-0.219,0.075,0.944,1.343,2.197,0.671
-0.221,0.077,0.946,0.610,2.075,0.305
-0.225,0.084,0.946,0.671,1.160,0.427
-0.224,0.087,0.945,0.732,1.099,1.526
-0.219,0.084,0.948,0.610,1.404,2.502
-0.216,0.078,0.947,1.404,2.563,2.075
-0.215,0.075,0.949,1.221,1.709,0.977
-0.221,0.080,0.942,1.221,1.526,0.793
-0.223,0.081,0.946,0.305,1.770,0.916
-0.223,0.083,0.948,0.977,2.075,0.977
-0.224,0.084,0.945,1.282,2.075,1.038
-0.220,0.078,0.943,1.343,1.526,1.709
-0.220,0.075,0.944,0.671,1.892,1.404
-0.219,0.075,0.948,0.610,1.831,0.916
-0.220,0.079,0.946,0.671,1.404,0.549
-0.224,0.082,0.943,0.732,1.770,0.427
-0.225,0.086,0.945,0.427,1.526,1.038
-0.223,0.087,0.946,0.427,1.465,1.892
-0.219,0.082,0.946,1.099,2.014,2.136
-0.217,0.077,0.946,0.793,1.648,1.648
-0.219,0.079,0.947,0.793,2.014,1.343
-0.222,0.082,0.944,0.854,1.648,1.160
-0.222,0.083,0.946,0.916,2.258,0.977
-0.221,0.080,0.945,1.038,2.502,1.343
-0.222,0.078,0.946,0.427,1.465,1.221
-0.224,0.086,0.946,0.610,1.404,0.671
-0.224,0.091,0.944,0.793,1.770,1.465
-0.221,0.080,0.947,1.770,2.380,2.075
-0.219,0.073,0.947,1.587,1.587,1.221
-0.221,0.078,0.944,0.916,1.770,0.244

-0.223,0.085,0.944,0.427,1.160,0.549
-0.225,0.089,0.944,0.549,1.160,1.221
-0.220,0.081,0.947,1.648,2.014,1.709
-0.220,0.076,0.945,1.709,2.075,0.916
-0.224,0.079,0.944,1.282,1.526,0.671
-0.223,0.083,0.945,0.732,1.709,1.343
-0.223,0.082,0.947,1.038,2.319,1.221
-0.225,0.079,0.945,1.282,1.831,0.977
-0.224,0.075,0.939,1.221,1.587,1.282
-0.223,0.080,0.947,0.061,1.953,1.221
-0.224,0.084,0.947,0.244,1.282,1.038
-0.222,0.086,0.943,0.671,2.014,1.282
-0.220,0.086,0.945,0.427,2.258,1.648
-0.217,0.081,0.950,0.610,2.502,1.709
-0.216,0.082,0.948,1.038,2.075,1.221
-0.217,0.083,0.943,0.488,1.587,1.343
-0.221,0.085,0.948,0.427,1.953,1.038
-0.226,0.086,0.947,1.343,1.892,1.099
-0.224,0.083,0.942,1.526,1.648,1.648
-0.222,0.080,0.945,1.160,1.892,1.648
-0.219,0.079,0.947,1.160,1.404,1.404
-0.222,0.080,0.946,0.793,1.404,0.366
-0.226,0.086,0.939,0.732,1.038,0.793
-0.222,0.085,0.946,0.610,1.465,1.648
-0.220,0.083,0.947,0.427,1.709,1.099
-0.224,0.082,0.944,1.770,2.441,0.183
-0.224,0.085,0.943,0.732,1.221,0.854
-0.225,0.087,0.943,-0.244,0.854,1.709
-0.222,0.084,0.949,0.854,2.258,1.465
-0.218,0.084,0.948,1.160,1.831,1.099
-0.224,0.084,0.942,1.099,1.953,1.099
-0.227,0.084,0.945,0.000,1.831,1.282
-0.226,0.085,0.945,0.854,1.831,1.587
-0.224,0.082,0.943,1.343,2.380,1.404
-0.226,0.082,0.942,0.122,2.258,1.343
-0.224,0.087,0.945,0.122,1.282,1.709
-0.222,0.090,0.946,0.122,1.892,1.709
-0.223,0.083,0.945,0.916,2.319,1.831
-0.223,0.078,0.946,0.183,2.258,1.587
-0.223,0.076,0.944,-0.183,1.282,1.831
-0.222,0.088,0.943,0.610,2.319,0.488
-0.227,0.096,0.946,-0.122,1.709,1.160
-0.222,0.094,0.941,0.061,1.648,2.197
-0.218,0.089,0.949,0.549,2.258,2.075
-0.219,0.089,0.945,0.916,1.831,1.282
-0.223,0.089,0.943,0.549,1.709,1.343
-0.223,0.090,0.945,0.122,1.587,1.404
-0.223,0.095,0.948,0.610,1.282,1.465
-0.223,0.092,0.946,1.892,2.197,1.160
-0.223,0.086,0.942,1.648,2.197,1.404
-0.220,0.084,0.943,0.549,1.343,1.038
-0.223,0.085,0.946,0.732,1.709,0.366
-0.227,0.091,0.945,0.610,1.221,-0.305
-0.230,0.095,0.943,1.526,2.014,0.305
-0.222,0.097,0.944,1.038,1.038,1.587
-0.218,0.091,0.946,1.343,1.343,1.709
-0.222,0.085,0.945,1.770,2.014,0.244
-0.223,0.089,0.944,1.404,0.977,0.488
-0.225,0.091,0.943,1.343,1.648,1.160
-0.223,0.091,0.947,0.854,1.221,1.282
-0.220,0.092,0.945,1.770,1.221,1.709
-0.219,0.088,0.943,1.770,2.625,1.648
-0.221,0.084,0.950,1.892,2.075,1.282
-0.224,0.080,0.943,2.319,1.526,1.038
-0.228,0.084,0.942,1.343,1.343,0.122
-0.228,0.088,0.947,1.099,1.038,0.427
-0.225,0.086,0.944,1.648,1.953,0.488
-0.224,0.082,0.942,1.648,1.770,0.610
-0.224,0.083,0.944,0.977,2.014,-0.122
-0.224,0.089,0.944,0.549,1.221,0.610
-0.224,0.093,0.945,0.610,1.526,0.793
-0.224,0.092,0.946,1.221,1.831,1.221
-0.223,0.086,0.946,1.526,2.441,1.404
-0.223,0.080,0.945,1.404,2.136,1.282
-0.224,0.083,0.943,1.160,1.709,0.916
-0.227,0.088,0.943,0.427,1.404,0.793
-0.228,0.093,0.946,0.793,1.892,1.404
-0.225,0.089,0.944,1.587,2.136,2.136
-0.220,0.080,0.945,1.465,2.625,2.014
-0.220,0.075,0.946,1.465,2.136,1.099
-0.223,0.082,0.944,0.305,1.160,0.610
-0.227,0.090,0.943,0.671,1.587,0.488
-0.226,0.088,0.945,1.282,2.502,0.549
-0.223,0.087,0.946,1.465,2.502,0.732
-0.221,0.086,0.943,0.854,1.526,1.404
-0.220,0.089,0.948,0.732,1.648,1.587
-0.216,0.090,0.948,0.610,2.197,1.160
-0.219,0.088,0.944,1.038,1.831,1.465
-0.222,0.087,0.947,1.343,2.014,1.221
-0.224,0.090,0.943,0.793,1.099,1.343
-0.222,0.087,0.945,0.916,1.831,1.831
-0.219,0.085,0.949,1.099,1.343,1.953
-0.221,0.084,0.945,1.282,0.977,1.160
-0.224,0.086,0.943,0.793,1.465,1.160
-0.227,0.090,0.948,0.671,2.380,0.488
-0.228,0.089,0.943,1.770,1.770,1.282
-0.225,0.083,0.940,1.587,2.014,1.465
-0.225,0.082,0.946,0.427,1.160,1.038
-0.223,0.088,0.944,0.549,1.526,0.732
-0.224,0.093,0.943,0.732,1.099,1.038

-0.224,0.091,0.947,1.282,2.563,1.282
-0.223,0.087,0.944,1.282,2.319,1.282
-0.221,0.083,0.943,0.854,1.770,1.526
-0.219,0.086,0.948,0.610,1.587,1.099
-0.223,0.090,0.946,0.610,1.160,0.793
-0.225,0.090,0.944,1.038,1.526,1.099
-0.224,0.087,0.944,0.977,2.075,1.404
-0.224,0.085,0.945,0.732,1.587,1.526
-0.221,0.086,0.944,1.343,2.319,1.099
-0.222,0.089,0.947,1.099,1.831,0.854
-0.224,0.087,0.944,0.977,1.709,0.793
-0.227,0.085,0.942,1.221,2.136,0.671
-0.227,0.084,0.944,0.916,1.770,0.549
-0.226,0.091,0.942,0.549,0.977,1.282
-0.224,0.089,0.946,0.549,1.770,1.343
-0.224,0.089,0.946,1.282,1.953,1.099
-0.224,0.088,0.943,1.404,1.343,0.916
-0.222,0.090,0.945,0.488,1.343,1.404
-0.219,0.087,0.945,0.549,1.343,1.404
-0.222,0.088,0.946,1.404,2.014,0.916
-0.225,0.088,0.943,1.343,1.099,0.977
-0.230,0.090,0.941,0.793,2.136,0.793
-0.228,0.087,0.942,1.160,2.563,1.038
-0.226,0.087,0.943,1.282,2.136,0.977
-0.226,0.086,0.944,0.671,1.404,0.916
-0.227,0.088,0.942,0.916,1.709,1.221
-0.227,0.090,0.945,0.793,1.648,1.465
-0.225,0.089,0.946,0.671,1.282,0.977
-0.223,0.090,0.942,1.343,1.709,0.916
-0.224,0.090,0.945,0.610,1.770,1.038
-0.223,0.089,0.944,1.221,2.075,0.793
-0.224,0.089,0.943,0.916,1.343,0.916
-0.225,0.090,0.943,0.793,1.526,1.221
-0.226,0.091,0.945,0.977,2.136,0.916
-0.224,0.090,0.943,0.977,0.977,1.343
-0.227,0.090,0.943,0.793,1.892,1.099
-0.225,0.088,0.944,1.221,1.831,1.526
-0.224,0.087,0.943,1.038,1.892,1.465
-0.226,0.089,0.944,1.038,1.587,0.793
-0.225,0.091,0.943,0.793,1.404,0.793
-0.225,0.095,0.944,0.732,1.465,1.099
-0.226,0.093,0.946,1.221,1.648,1.587
-0.223,0.089,0.943,1.465,2.136,1.160
-0.225,0.087,0.942,1.404,1.770,0.916
-0.226,0.087,0.944,1.221,2.014,0.610
-0.227,0.090,0.941,0.671,1.343,0.977
-0.226,0.090,0.943,0.916,1.526,1.038
-0.226,0.090,0.943,0.854,1.648,1.343
-0.226,0.088,0.942,1.099,1.343,1.282
-0.226,0.088,0.944,1.221,1.831,0.732
-0.227,0.089,0.940,0.305,1.953,0.732
-0.227,0.089,0.943,0.977,2.258,0.977
-0.226,0.091,0.943,1.160,2.808,1.099
-0.226,0.090,0.943,0.549,1.465,1.221
-0.223,0.088,0.944,1.038,2.991,1.282
-0.222,0.089,0.946,0.488,1.465,0.854
-0.223,0.094,0.942,0.977,1.770,0.916
-0.225,0.095,0.945,1.038,2.441,0.854
-0.227,0.092,0.942,1.282,1.038,1.221
-0.227,0.087,0.941,1.587,2.869,1.343
-0.224,0.085,0.943,1.160,1.648,1.587
-0.225,0.088,0.942,0.244,1.099,1.099
-0.225,0.092,0.944,0.732,1.892,0.732
-0.228,0.094,0.944,0.671,1.709,0.549
-0.227,0.094,0.940,1.465,2.136,1.160
-0.224,0.088,0.942,1.404,1.892,1.526
-0.224,0.086,0.943,0.671,1.587,0.793
-0.227,0.091,0.942,1.221,1.709,0.610
-0.229,0.096,0.944,0.671,1.343,0.916
-0.229,0.094,0.941,1.221,1.831,1.648
-0.227,0.088,0.942,1.404,2.502,1.587
-0.225,0.088,0.941,0.977,1.404,1.404
-0.224,0.090,0.943,0.549,2.747,1.221
-0.222,0.092,0.947,0.305,1.221,1.099
-0.223,0.095,0.944,1.038,2.075,0.610
-0.225,0.094,0.944,0.977,2.319,1.099
-0.224,0.089,0.944,1.099,1.465,1.343
-0.223,0.090,0.944,1.099,1.648,1.038
-0.224,0.090,0.943,1.038,1.709,0.244
-0.228,0.091,0.944,1.160,1.953,0.183
-0.227,0.092,0.942,0.793,0.916,1.160
-0.225,0.091,0.943,1.282,2.441,1.160
-0.224,0.090,0.944,1.343,1.831,1.038
-0.225,0.090,0.942,1.221,1.892,0.671
-0.226,0.090,0.944,0.916,1.587,0.854
-0.226,0.091,0.942,1.404,1.648,1.221
-0.223,0.091,0.943,0.671,1.526,1.282
-0.223,0.093,0.946,1.160,1.587,1.221
-0.225,0.093,0.943,1.526,2.075,1.099
-0.225,0.090,0.943,1.099,2.258,1.160
-0.226,0.088,0.944,1.221,1.953,1.160
-0.228,0.089,0.942,1.160,1.404,1.404
-0.226,0.090,0.944,1.038,1.892,1.404
-0.225,0.091,0.944,1.343,1.892,1.221
-0.224,0.089,0.942,1.526,2.075,1.404
-0.227,0.087,0.942,1.892,2.502,0.977
-0.227,0.088,0.944,1.648,2.075,0.916
-0.227,0.088,0.941,1.404,1.892,1.038
-0.224,0.089,0.946,0.977,2.197,0.732
-0.223,0.091,0.943,1.282,1.770,0.549

-0.221,0.089,0.946,1.221,1.953,0.671
-0.220,0.086,0.944,1.587,1.526,0.977
-0.221,0.084,0.944,1.770,1.953,0.549
-0.223,0.089,0.945,1.282,2.136,0.244
-0.226,0.093,0.942,1.282,1.221,0.793
-0.224,0.088,0.946,1.587,2.869,0.793
-0.224,0.083,0.943,1.465,1.221,1.404
-0.222,0.081,0.945,0.732,2.502,0.488
-0.224,0.089,0.944,0.854,0.732,0.854
-0.225,0.093,0.943,0.061,0.854,1.587
-0.223,0.090,0.946,1.221,1.770,1.770
-0.223,0.089,0.942,1.343,1.465,1.465
-0.222,0.090,0.944,0.427,1.099,1.831
-0.223,0.088,0.947,0.610,2.136,1.648
-0.225,0.088,0.946,1.099,1.892,1.343
-0.225,0.088,0.942,1.160,2.197,1.282
-0.224,0.089,0.943,1.221,2.441,1.526
-0.224,0.087,0.944,0.549,1.343,1.465
-0.223,0.088,0.945,0.671,1.282,1.282
-0.223,0.089,0.945,0.732,2.075,1.221
-0.225,0.090,0.944,1.099,2.441,0.671
-0.228,0.093,0.945,1.404,1.648,0.732
-0.226,0.094,0.943,0.732,0.916,1.465
-0.222,0.089,0.945,1.343,1.465,1.953
-0.220,0.085,0.944,1.587,1.526,1.343
-0.223,0.088,0.941,1.282,1.892,0.671
-0.226,0.090,0.944,0.793,2.441,0.610
-0.226,0.092,0.943,0.427,0.977,1.282
-0.224,0.094,0.944,0.549,1.343,1.160
-0.224,0.090,0.946,1.587,2.625,1.282
-0.223,0.090,0.944,1.526,1.404,1.404
-0.223,0.088,0.944,1.526,2.014,1.404
-0.225,0.088,0.943,1.526,2.136,0.854
-0.229,0.088,0.943,0.732,1.282,0.732
-0.228,0.092,0.942,1.099,1.099,1.343
-0.228,0.093,0.942,0.793,2.441,1.038
-0.227,0.089,0.945,0.671,1.587,1.526
-0.223,0.086,0.943,0.916,1.831,1.526
-0.221,0.083,0.945,0.916,1.892,1.099
-0.224,0.088,0.943,1.221,1.282,0.916
-0.227,0.094,0.943,0.732,1.892,0.549
-0.229,0.095,0.945,1.282,1.709,1.099
-0.229,0.093,0.942,1.038,2.014,1.404
-0.223,0.085,0.944,1.526,2.075,1.770
-0.221,0.083,0.944,0.977,1.648,1.221
-0.225,0.089,0.941,0.610,1.404,0.488
-0.231,0.095,0.943,0.610,1.404,0.549
-0.231,0.093,0.943,1.038,1.953,1.160
-0.228,0.087,0.943,0.854,1.770,1.465
-0.225,0.086,0.943,1.038,1.648,1.221
-0.224,0.090,0.943,1.404,1.648,1.404
-0.225,0.091,0.943,1.099,1.221,1.587
-0.224,0.092,0.943,1.099,2.319,1.099
-0.226,0.091,0.943,0.793,1.404,1.221
-0.228,0.087,0.943,0.916,1.892,0.610
-0.228,0.087,0.942,1.221,1.221,1.038
-0.227,0.089,0.943,0.977,1.160,1.465
-0.226,0.092,0.943,0.366,1.038,1.160
-0.227,0.092,0.943,1.465,1.892,1.221
-0.227,0.089,0.943,1.526,1.526,1.465
-0.225,0.086,0.944,1.404,1.038,1.404
-0.224,0.083,0.944,0.977,2.380,0.610
-0.228,0.094,0.942,-0.122,1.282,0.244
-0.230,0.099,0.943,0.671,2.197,0.183
-0.227,0.092,0.940,1.953,2.808,1.404
-0.225,0.085,0.945,1.465,2.686,1.038
-0.226,0.085,0.945,0.854,0.732,0.916
-0.226,0.089,0.941,1.099,2.014,0.671
-0.228,0.093,0.943,0.549,2.380,0.305
-0.231,0.094,0.944,1.587,2.563,0.732
-0.229,0.091,0.941,1.526,2.502,1.526
-0.226,0.085,0.943,0.854,1.587,1.587
-0.226,0.086,0.945,0.977,0.793,0.732
-0.228,0.089,0.942,0.854,1.953,0.122
-0.229,0.093,0.942,0.793,2.380,0.305
-0.230,0.095,0.943,0.549,0.854,1.282
-0.227,0.090,0.942,0.793,2.258,1.526
-0.225,0.084,0.944,1.831,2.502,1.404
-0.230,0.086,0.942,0.793,2.136,0.305
-0.231,0.092,0.939,0.671,0.854,0.671
-0.231,0.094,0.944,0.549,1.160,1.038
-0.230,0.095,0.943,1.770,2.197,1.465
-0.224,0.089,0.942,2.014,2.380,1.892
-0.224,0.083,0.942,1.526,1.587,1.343
-0.228,0.086,0.943,0.366,1.709,0.183
-0.232,0.091,0.942,0.427,1.404,0.122
-0.231,0.094,0.942,1.221,2.075,0.793
-0.228,0.091,0.943,1.404,2.441,1.648
-0.222,0.083,0.951,1.709,0.793,1.221
-0.229,0.092,0.942,1.526,2.930,0.122
-0.232,0.090,0.941,0.916,1.770,0.366
-0.233,0.093,0.942,1.221,1.038,1.404
-0.229,0.091,0.943,1.709,1.709,1.587
-0.227,0.089,0.942,1.587,2.136,0.793
-0.227,0.088,0.945,0.916,1.831,0.854
-0.228,0.089,0.943,1.038,2.197,0.732
-0.231,0.092,0.944,1.099,0.732,1.282
-0.230,0.090,0.943,0.977,1.099,0.854
-0.230,0.087,0.942,1.343,2.563,0.549
-0.231,0.088,0.941,0.854,2.258,0.549

-0.230,0.086,0.941,1.526,2.502,0.916
-0.231,0.089,0.944,1.343,1.404,0.977
-0.229,0.090,0.943,1.526,1.770,0.732
-0.231,0.093,0.942,1.526,2.319,0.549
-0.230,0.090,0.942,0.977,2.869,0.854
-0.227,0.086,0.945,1.648,1.404,1.465
-0.227,0.087,0.942,1.465,2.136,1.282
-0.226,0.086,0.942,0.732,2.502,0.610
-0.230,0.093,0.946,0.916,1.953,0.061
-0.233,0.095,0.941,1.526,2.441,0.671
-0.228,0.088,0.942,1.892,2.625,1.648
-0.224,0.082,0.946,1.770,2.136,1.770
-0.227,0.084,0.943,1.770,2.625,0.244
-0.233,0.088,0.939,0.549,0.793,0.610
-0.232,0.089,0.943,1.282,1.953,0.977
-0.229,0.090,0.945,1.587,2.197,1.282
-0.226,0.089,0.944,1.770,2.502,1.099
-0.226,0.089,0.942,0.854,1.709,0.977
-0.227,0.088,0.947,1.831,2.380,1.160
-0.228,0.088,0.940,1.831,2.136,0.732
-0.229,0.086,0.940,1.221,2.625,0.732
-0.229,0.085,0.942,1.404,1.953,0.977
-0.229,0.087,0.941,1.343,2.747,0.916
-0.227,0.087,0.944,0.671,1.892,0.732
-0.229,0.089,0.942,0.366,1.648,0.732
-0.226,0.090,0.944,0.671,2.502,1.282
-0.222,0.089,0.946,0.793,1.282,2.014
-0.222,0.087,0.946,0.671,1.587,1.221
-0.225,0.089,0.944,1.099,0.671,1.160
-0.228,0.090,0.942,1.160,2.441,0.977
-0.228,0.088,0.944,0.671,2.625,0.977
-0.231,0.086,0.943,1.465,2.808,0.977
-0.230,0.083,0.941,0.549,1.526,1.160
-0.228,0.085,0.943,0.732,1.465,1.465
-0.228,0.087,0.944,0.610,1.343,1.282
-0.226,0.089,0.945,0.549,2.258,0.793
-0.226,0.094,0.946,0.916,2.014,1.160
-0.225,0.093,0.945,1.953,3.113,1.282
-0.226,0.088,0.945,1.282,1.648,1.648
-0.228,0.084,0.942,0.671,1.221,1.526
-0.226,0.083,0.941,1.099,1.404,1.526
-0.227,0.088,0.945,1.160,1.770,0.793
-0.228,0.092,0.939,0.916,0.977,1.465
-0.227,0.090,0.942,0.549,1.587,1.404
-0.227,0.088,0.948,0.366,1.831,1.343
-0.227,0.090,0.941,0.854,0.671,1.831
-0.226,0.090,0.943,1.160,1.953,1.465
-0.226,0.091,0.945,0.732,1.160,1.648
-0.230,0.087,0.940,0.793,2.319,0.977
-0.231,0.084,0.943,0.671,2.197,0.793
-0.229,0.087,0.942,0.366,1.709,0.793
-0.227,0.089,0.942,0.305,1.282,1.038
-0.227,0.090,0.944,1.038,0.916,1.038
-0.228,0.092,0.940,1.099,2.197,1.160
-0.226,0.090,0.944,0.488,2.808,1.221
-0.226,0.091,0.947,1.099,1.831,1.282
-0.226,0.090,0.943,1.587,2.502,1.282
-0.226,0.089,0.943,1.038,1.038,1.648
-0.227,0.092,0.942,0.488,2.075,1.160
-0.228,0.092,0.942,0.854,1.587,1.221
-0.229,0.087,0.943,1.526,1.221,1.648
-0.229,0.083,0.942,0.916,2.197,1.221
-0.225,0.084,0.942,1.526,1.648,1.282
-0.229,0.093,0.943,0.977,1.770,0.427
-0.230,0.095,0.941,0.977,1.587,1.160
-0.229,0.089,0.942,1.038,1.404,1.465
-0.229,0.085,0.942,0.793,1.648,0.732
-0.229,0.089,0.943,1.160,1.587,1.160
-0.229,0.091,0.942,0.854,2.380,1.221
-0.227,0.092,0.944,0.977,1.953,1.343
-0.229,0.090,0.942,1.221,1.221,0.977
-0.230,0.090,0.939,0.488,1.099,1.404
-0.227,0.089,0.943,1.160,2.075,1.770
-0.226,0.089,0.947,0.671,1.160,1.648
-0.227,0.088,0.942,1.709,2.808,0.977
-0.228,0.089,0.942,1.892,2.319,0.977
-0.230,0.091,0.943,0.488,0.549,1.099
-0.231,0.090,0.942,1.526,1.526,1.831
-0.230,0.084,0.943,1.404,1.831,1.221
-0.230,0.083,0.942,1.770,1.953,1.099
-0.230,0.087,0.938,0.793,1.892,0.916
-0.228,0.091,0.945,0.244,1.953,0.610
-0.228,0.090,0.942,0.732,2.258,0.488
-0.228,0.090,0.943,1.099,1.526,1.526
-0.228,0.090,0.942,0.488,2.014,0.977
-0.228,0.094,0.944,0.610,0.916,1.221
-0.229,0.093,0.943,1.404,2.869,1.160
-0.228,0.089,0.943,1.953,3.174,1.404
-0.227,0.085,0.943,0.671,1.648,1.770
-0.225,0.087,0.943,0.427,1.282,1.221
-0.229,0.089,0.944,0.854,1.526,0.671
-0.231,0.091,0.940,1.099,0.977,1.160
-0.230,0.090,0.943,1.465,1.770,1.343
-0.230,0.090,0.944,0.977,1.221,1.404
-0.227,0.088,0.943,1.160,2.625,1.343
-0.226,0.086,0.943,0.671,1.221,0.916
-0.229,0.089,0.944,0.671,1.892,0.305
-0.231,0.093,0.942,0.610,1.526,0.488
-0.230,0.093,0.942,1.038,2.014,1.404
-0.227,0.089,0.946,0.549,1.587,1.648

-0.227,0.087,0.942,0.854,2.075,0.977
-0.229,0.088,0.942,1.465,2.136,1.465
-0.229,0.087,0.941,0.732,0.977,1.587
-0.230,0.089,0.942,0.366,1.526,1.160
-0.229,0.091,0.943,0.488,1.221,1.343
-0.228,0.091,0.943,1.099,1.526,1.282
-0.228,0.088,0.944,1.709,2.258,1.343
-0.228,0.084,0.942,1.526,2.319,0.916
-0.231,0.087,0.941,0.916,2.441,0.854
-0.231,0.092,0.942,0.061,1.953,1.038
-0.228,0.095,0.947,1.160,1.770,1.343
-0.227,0.093,0.943,1.404,1.160,1.709
-0.224,0.086,0.942,1.038,2.625,1.221
-0.226,0.086,0.945,1.221,2.075,0.366
-0.231,0.092,0.942,0.610,1.770,-0.061
-0.233,0.095,0.939,1.099,2.319,0.732
-0.231,0.091,0.943,0.732,1.770,0.977
-0.230,0.089,0.944,1.404,1.648,1.404
-0.229,0.087,0.942,0.977,2.136,1.038
-0.227,0.088,0.943,1.099,2.441,0.916
-0.228,0.088,0.944,1.221,2.502,0.244
-0.230,0.091,0.942,1.404,0.854,0.793
-0.231,0.093,0.940,0.793,0.732,1.648
-0.227,0.087,0.945,0.793,1.465,1.404
-0.228,0.088,0.943,1.648,2.502,0.854
-0.230,0.086,0.942,0.793,2.441,0.793
-0.231,0.091,0.945,0.916,2.380,0.427
-0.231,0.092,0.942,0.610,2.197,0.671
-0.227,0.089,0.944,0.793,2.319,1.099
-0.226,0.088,0.946,2.075,2.686,1.038
-0.226,0.087,0.940,2.014,2.258,1.099
-0.227,0.087,0.940,0.549,1.343,0.916
-0.227,0.089,0.945,1.221,1.038,1.099
-0.229,0.090,0.940,1.221,1.038,1.221
-0.227,0.090,0.942,0.610,1.038,1.099
-0.227,0.088,0.944,1.282,0.977,1.160
-0.228,0.088,0.943,0.671,1.099,0.977
-0.229,0.087,0.941,0.732,2.197,0.854
-0.230,0.088,0.944,1.221,1.526,0.916
-0.231,0.089,0.941,0.977,2.380,0.427
-0.230,0.090,0.943,1.770,2.930,1.038
-0.228,0.091,0.943,1.343,2.625,1.099
-0.226,0.087,0.944,1.343,1.221,1.221
-0.226,0.085,0.942,0.916,1.099,1.160
-0.227,0.089,0.943,0.854,2.441,0.732
-0.228,0.089,0.944,0.610,0.793,1.099
-0.228,0.089,0.944,0.671,1.526,0.793
-0.229,0.089,0.942,0.549,1.160,1.160
-0.229,0.089,0.940,0.366,1.160,1.343
-0.230,0.090,0.945,0.183,2.197,0.916
-0.228,0.090,0.943,1.404,2.441,1.160
-0.228,0.090,0.939,0.854,1.282,1.404
-0.229,0.089,0.943,0.183,1.709,1.282
-0.230,0.088,0.943,0.366,1.587,1.221
-0.232,0.090,0.942,1.221,3.113,1.099
-0.230,0.089,0.942,0.305,2.258,1.343
-0.227,0.088,0.944,1.221,2.625,1.709
-0.225,0.089,0.943,0.183,2.075,1.221
-0.226,0.089,0.942,0.549,1.892,1.160
-0.224,0.092,0.943,-0.366,1.282,1.221
-0.222,0.098,0.944,-0.244,0.916,1.343
-0.219,0.097,0.946,0.610,0.671,1.526
-0.226,0.097,0.944,1.160,1.038,1.038
-0.232,0.094,0.940,1.221,1.221,0.793
-0.232,0.089,0.942,1.465,1.282,1.099
-0.233,0.093,0.939,1.770,1.892,1.343
-0.231,0.090,0.940,1.221,2.686,1.404
-0.229,0.088,0.942,1.160,1.526,2.258
-0.231,0.086,0.942,1.038,2.319,1.526
-0.231,0.089,0.942,0.488,1.648,1.282
-0.230,0.095,0.942,0.427,2.258,1.282
-0.226,0.098,0.943,0.305,1.709,1.587
-0.224,0.096,0.945,0.671,2.197,1.892
-0.224,0.093,0.946,1.282,1.953,1.282
-0.223,0.093,0.945,1.038,1.465,1.099
-0.226,0.095,0.943,1.526,0.977,0.916
-0.232,0.093,0.943,1.770,2.014,0.000
-0.237,0.085,0.939,2.563,1.160,0.793
-0.239,0.086,0.938,1.770,1.343,0.793
-0.234,0.088,0.939,0.610,1.282,1.038
-0.228,0.085,0.942,0.854,2.502,0.977
-0.227,0.087,0.942,0.488,1.953,0.366
-0.231,0.091,0.940,0.854,1.953,0.000
-0.233,0.095,0.943,0.671,1.953,0.671
-0.230,0.096,0.942,0.488,1.770,1.587
-0.225,0.096,0.945,0.183,1.648,1.953
-0.225,0.092,0.946,1.770,2.991,1.465
-0.228,0.087,0.942,2.136,2.686,1.648
-0.229,0.087,0.936,0.488,1.648,1.587
-0.228,0.089,0.944,0.549,1.404,1.648
-0.230,0.092,0.943,0.732,1.831,1.038
-0.228,0.090,0.940,0.977,1.892,1.465
-0.227,0.085,0.943,0.732,2.686,1.160
-0.228,0.088,0.942,0.122,1.892,0.549
-0.234,0.096,0.942,0.366,1.282,0.366
-0.235,0.094,0.939,0.732,0.916,1.099
-0.232,0.091,0.939,0.122,2.441,1.587
-0.226,0.092,0.946,0.854,1.892,1.099
-0.226,0.093,0.940,1.465,1.221,1.343
-0.225,0.097,0.942,0.549,1.343,1.465

-0.227,0.094,0.946,0.671,2.563,1.404
-0.226,0.093,0.944,1.770,2.686,1.526
-0.228,0.094,0.941,1.892,1.892,1.465
-0.226,0.089,0.942,1.709,2.075,1.953
-0.224,0.088,0.942,0.732,1.526,1.587
-0.227,0.089,0.943,1.587,1.587,1.526
-0.232,0.089,0.941,0.854,1.831,0.549
-0.234,0.089,0.942,1.709,1.465,1.099
-0.231,0.088,0.939,0.732,2.380,1.099
-0.225,0.087,0.942,0.488,1.526,0.977
-0.225,0.089,0.945,1.038,2.014,0.244
-0.227,0.095,0.942,0.854,1.038,0.366
-0.229,0.094,0.942,1.038,1.404,0.793
-0.228,0.094,0.945,1.099,1.648,1.221
-0.225,0.092,0.944,1.343,1.526,1.282
-0.226,0.088,0.941,1.404,1.526,1.221
-0.227,0.090,0.944,1.160,1.831,0.916
-0.231,0.093,0.945,1.099,1.953,0.610
-0.230,0.094,0.942,0.977,0.854,1.770
-0.227,0.089,0.943,1.465,2.563,1.404
-0.227,0.086,0.942,1.160,2.197,1.099
-0.227,0.086,0.942,1.709,2.380,0.610
-0.231,0.091,0.942,1.282,1.648,0.610
-0.230,0.094,0.941,0.488,0.854,1.099
-0.229,0.092,0.943,1.587,1.526,1.282
-0.227,0.090,0.943,1.160,2.747,0.977
-0.227,0.086,0.942,1.221,1.221,1.160
-0.225,0.088,0.943,1.343,1.221,0.854
-0.227,0.092,0.945,0.854,1.282,0.916
-0.228,0.095,0.944,1.648,2.197,0.793
-0.228,0.094,0.943,1.587,2.258,0.854
-0.227,0.091,0.944,1.343,1.282,1.465
-0.227,0.089,0.942,1.282,2.075,1.221
-0.227,0.087,0.943,0.916,1.221,1.160
-0.229,0.088,0.944,1.038,2.502,0.427
-0.229,0.090,0.943,0.488,0.916,0.916
-0.227,0.090,0.944,1.038,1.282,1.099
-0.227,0.088,0.944,0.916,1.770,0.793
-0.227,0.086,0.943,1.892,1.526,0.671
-0.230,0.089,0.942,1.038,1.953,0.427
-0.231,0.091,0.944,0.916,1.343,1.343
-0.228,0.091,0.945,1.038,0.854,1.099
-0.226,0.090,0.943,1.160,2.136,0.793
-0.226,0.086,0.943,1.160,1.709,0.977
-0.226,0.086,0.945,1.160,2.258,0.427
-0.228,0.091,0.943,1.282,2.441,0.549
-0.228,0.092,0.943,0.610,1.587,0.793
-0.228,0.090,0.945,2.075,2.197,0.977
-0.228,0.085,0.943,1.404,1.648,1.038
-0.228,0.086,0.942,1.953,2.380,0.793
-0.230,0.086,0.942,0.916,1.587,0.488
-0.230,0.088,0.942,0.366,2.014,0.732
-0.226,0.090,0.946,1.343,1.465,1.343
-0.229,0.088,0.943,1.526,2.991,0.671
-0.229,0.087,0.943,1.160,2.319,1.160
-0.227,0.087,0.944,1.221,1.648,1.404
-0.228,0.089,0.943,1.282,2.014,1.465
-0.226,0.087,0.947,0.671,1.160,1.770
-0.227,0.089,0.943,1.343,1.465,1.282
-0.229,0.092,0.943,0.061,1.160,1.099
-0.230,0.091,0.945,0.916,2.563,1.526
-0.229,0.085,0.942,1.160,1.343,1.770
-0.227,0.082,0.943,1.404,2.014,1.465
-0.228,0.085,0.943,1.099,1.404,0.916
-0.231,0.094,0.943,0.977,1.831,0.916
-0.227,0.095,0.945,0.854,1.038,1.465
-0.227,0.091,0.943,1.160,1.465,2.319
-0.226,0.081,0.945,1.892,2.930,1.404
-0.229,0.082,0.940,0.916,1.648,0.549
-0.233,0.089,0.943,-0.061,1.221,0.549
-0.233,0.099,0.944,0.366,1.038,1.160
-0.230,0.097,0.946,1.526,2.563,1.892
-0.227,0.090,0.944,2.319,2.136,2.747
-0.223,0.088,0.950,2.625,2.319,1.709
-0.227,0.089,0.952,5.371,4.089,-1.099
-0.230,0.087,0.935,5.493,4.089,0.122
-0.228,0.080,0.944,5.005,4.883,1.404
-0.228,0.072,0.946,5.859,3.723,1.465
-0.233,0.070,0.939,6.592,5.371,-0.061
-0.239,0.069,0.939,5.920,4.822,0.122
-0.234,0.062,0.943,4.150,5.188,1.953
-0.219,0.068,0.950,1.892,3.479,2.136
-0.199,0.079,0.950,1.953,2.686,2.258
-0.182,0.071,0.957,2.441,3.235,1.587
-0.180,0.053,0.961,4.272,2.563,-0.183
-0.194,0.055,0.954,4.333,2.136,-2.563
-0.213,0.070,0.954,3.723,0.366,-2.625
-0.223,0.080,0.948,3.723,0.671,-0.183
-0.220,0.080,0.954,4.028,1.953,1.404
-0.212,0.067,0.949,5.737,2.075,1.770
-0.220,0.057,0.941,7.568,1.648,-0.183
-0.233,0.051,0.942,5.981,2.136,-0.183
-0.240,0.041,0.934,4.517,0.977,2.197
-0.235,0.040,0.934,2.747,2.136,2.441
-0.224,0.044,0.955,2.014,2.991,1.953
-0.218,0.048,0.950,1.099,1.648,2.747
-0.214,0.053,0.945,-0.427,1.038,2.869
-0.214,0.057,0.954,-0.854,2.075,3.174
-0.209,0.044,0.959,1.099,1.343,3.113
-0.199,0.048,0.954,2.014,2.319,2.197

-0.198,0.044,0.946,1.831,0.061,1.892
-0.201,0.039,0.957,1.221,1.892,0.610
-0.211,0.041,0.952,-0.244,-0.305,0.305
-0.219,0.052,0.945,0.732,-0.305,-1.038
-0.227,0.063,0.947,0.916,0.183,-0.488
-0.227,0.056,0.948,1.892,1.343,0.549
-0.227,0.050,0.948,2.258,-15.137,1.099
-0.223,0.039,0.949,2.991,1.831,0.977
-0.226,0.042,0.945,1.465,0.000,0.610
-0.224,0.042,0.948,2.014,1.831,0.061
-0.226,0.046,0.945,0.610,1.465,-0.244
-0.227,0.050,0.947,0.427,1.709,-0.366
-0.230,0.051,0.945,0.488,0.732,0.305
-0.228,0.051,0.946,0.793,0.916,0.916
-0.226,0.047,0.946,0.610,2.563,1.038
-0.221,0.049,0.947,0.854,1.526,1.038
-0.223,0.051,0.949,-0.366,1.038,1.160
-0.222,0.049,0.948,0.244,1.099,1.526
-0.225,0.053,0.952,0.854,0.977,0.854
-0.227,0.055,0.958,2.136,0.977,0.732
-0.228,0.056,0.944,2.625,0.610,1.160
-0.222,0.041,0.956,2.441,1.099,1.587
-0.224,0.043,0.946,2.563,0.000,1.221
-0.225,0.048,0.949,1.892,-0.488,1.160
-0.223,0.043,0.945,2.258,1.404,1.465
-0.221,0.039,0.950,1.404,0.610,0.244
-0.222,0.038,0.949,1.953,0.244,0.000
-0.228,0.045,0.947,2.380,0.122,-1.160
-0.230,0.054,0.949,2.441,0.061,-0.793
-0.238,0.052,0.946,2.014,-1.709,-0.732
-0.239,0.050,0.948,2.930,-1.343,-0.305
-0.243,0.043,0.944,3.357,-1.221,-0.305
-0.250,0.031,0.938,3.418,-0.305,0.000
-0.239,0.013,0.936,3.418,-0.122,0.366
-0.232,0.014,0.944,1.770,0.183,-2.380
-0.238,0.040,0.950,0.305,-1.343,-4.272
-0.252,0.062,0.944,0.183,-1.099,-3.479
-0.254,0.066,0.938,-0.061,-1.831,1.099
-0.246,0.054,0.941,0.061,-1.160,2.991
-0.243,0.042,0.945,0.244,0.610,2.563
-0.246,0.038,0.944,0.977,-1.221,1.343
-0.252,0.041,0.937,-0.244,-2.686,1.160
-0.259,0.048,0.936,-1.282,-1.953,2.014
-0.256,0.047,0.931,-1.404,-1.404,3.540
-0.259,0.050,0.942,-1.831,0.732,2.625
-0.263,0.050,0.945,-1.404,0.244,2.380
-0.260,0.059,0.939,-0.488,-0.549,2.502
-0.259,0.056,0.942,0.122,-0.793,2.441
-0.258,0.049,0.945,2.014,1.404,0.793
-0.258,0.053,0.946,3.357,1.099,-0.854
-0.261,0.047,0.932,3.540,-0.793,0.183
-0.261,0.042,0.938,2.014,-0.061,0.610
-0.263,0.042,0.942,1.526,-0.793,0.061
-0.268,0.048,0.939,1.648,-1.038,-0.488
-0.271,0.057,0.940,1.404,-2.136,1.709
-0.266,0.050,0.934,0.488,-2.686,3.723
-0.264,0.039,0.942,0.366,-3.052,2.808
-0.271,0.036,0.945,1.587,-3.296,-0.122
-0.276,0.035,0.930,2.441,-4.028,-2.075
-0.283,0.045,0.931,1.404,-3.052,-2.808
-0.286,0.050,0.930,-0.122,-2.747,-1.831
-0.289,0.050,0.924,-0.305,-2.808,-0.793
-0.297,0.055,0.932,1.587,0.427,-2.686
-0.303,0.056,0.920,1.709,1.343,-2.014
-0.296,0.050,0.921,1.099,2.014,-0.671
-0.284,0.041,0.932,0.488,1.526,-0.061
-0.280,0.040,0.935,0.854,2.258,-3.418
-0.282,0.050,0.933,2.686,2.808,-6.165
-0.290,0.055,0.930,2.441,1.770,-5.981
-0.298,0.068,0.928,0.549,0.549,-4.272
-0.299,0.068,0.924,-15.381,1.099,-0.366
-0.290,0.057,0.927,-0.671,2.258,1.526
-0.290,0.055,0.930,-1.160,1.221,1.099
-0.288,0.061,0.936,-0.244,1.404,-0.488
-0.286,0.065,0.934,0.427,0.427,0.305
-0.287,0.063,0.933,0.671,0.793,1.770
-0.287,0.055,0.930,0.549,0.305,1.648
-0.288,0.055,0.929,0.671,0.671,0.610
-0.292,0.056,0.928,0.183,-0.366,-0.488
-0.300,0.062,0.920,-0.305,1.160,-0.610
-0.300,0.061,0.922,-1.038,0.854,0.488
-0.294,0.067,0.926,-2.991,0.916,1.526
-0.293,0.065,0.931,-3.418,1.099,1.404
-0.291,0.068,0.924,-2.747,-0.610,0.793
-0.293,0.078,0.935,-2.136,1.099,0.061
-0.298,0.084,0.931,-1.221,0.000,0.244
-0.299,0.085,0.924,-0.305,1.343,0.122
-0.299,0.080,0.926,-0.122,1.648,1.343
-0.297,0.073,0.926,-0.244,2.014,0.977
-0.299,0.070,0.924,-0.427,0.183,0.366
-0.299,0.074,0.924,-0.305,2.014,-0.916
-0.300,0.080,0.923,-1.099,0.854,-0.916
-0.302,0.089,0.924,-1.709,0.427,-0.183
-0.302,0.097,0.930,-1.770,0.793,-0.183
-0.301,0.099,0.934,0.488,2.380,0.183
-0.307,0.094,0.919,0.732,0.427,1.404
-0.299,0.084,0.922,0.366,1.953,2.014
-0.300,0.082,0.923,0.122,2.563,1.160
-0.299,0.086,0.924,-1.099,0.488,0.916
-0.302,0.092,0.927,-1.282,1.709,1.038

-0.304,0.100,0.929,-0.488,0.854,0.916
-0.304,0.099,0.922,1.221,1.709,2.075
-0.302,0.089,0.920,0.977,1.099,3.113
-0.300,0.084,0.926,1.709,2.380,2.319
-0.304,0.083,0.921,0.977,1.160,1.038
-0.308,0.087,0.919,1.038,0.854,0.549
-0.306,0.089,0.922,0.244,0.977,0.732
-0.301,0.088,0.927,0.732,1.709,1.282
-0.299,0.089,0.927,0.122,0.854,0.549
-0.302,0.093,0.928,1.526,0.732,0.916
-0.302,0.092,0.923,1.221,-0.244,0.977
-0.302,0.088,0.925,1.770,0.916,0.549
-0.308,0.086,0.916,0.977,-0.549,-0.488
-0.312,0.089,0.917,1.038,1.160,-0.610
-0.309,0.091,0.919,-0.366,2.197,-0.854
-0.306,0.095,0.926,-0.305,0.793,0.061
-0.307,0.102,0.924,0.427,1.587,0.793
-0.313,0.107,0.925,0.549,1.099,0.854
-0.313,0.102,0.922,2.075,1.709,1.770
-0.311,0.095,0.919,2.808,1.160,2.747
-0.309,0.084,0.918,2.197,1.465,2.441
-0.303,0.078,0.917,0.793,1.160,2.014
-0.300,0.082,0.921,-0.244,1.831,1.038
-0.302,0.093,0.925,-0.977,0.671,0.366
-0.311,0.103,0.924,-0.488,0.183,0.061
-0.318,0.108,0.922,0.671,1.526,0.671
-0.317,0.101,0.916,2.136,0.549,2.258
-0.310,0.094,0.919,1.953,0.854,3.052
-0.303,0.082,0.925,1.343,2.136,2.380
-0.303,0.081,0.921,0.671,0.183,0.610
-0.307,0.087,0.921,0.122,1.343,-1.099
-0.314,0.096,0.919,-0.793,-0.793,-1.038
-0.317,0.105,0.923,-0.244,-0.122,-0.183
-0.318,0.110,0.921,1.099,0.671,1.038
-0.319,0.110,0.921,2.380,2.258,1.892
-0.316,0.101,0.920,3.418,2.380,2.686
-0.312,0.091,0.918,4.028,2.686,2.930
-0.306,0.079,0.917,3.479,2.747,2.686
-0.305,0.078,0.918,1.282,2.136,2.014
-0.307,0.082,0.923,0.366,0.671,1.404
-0.312,0.092,0.924,1.038,1.770,-0.061
-0.311,0.098,0.921,1.526,1.465,0.244
-0.310,0.096,0.919,1.038,1.343,0.671
-0.315,0.091,0.921,1.587,2.380,1.282
-0.310,0.082,0.926,0.916,0.549,1.465
-0.313,0.084,0.917,2.075,1.404,0.244
-0.314,0.089,0.915,1.038,0.916,0.061
-0.313,0.093,0.922,0.000,0.977,0.916
-0.310,0.097,0.919,0.366,1.465,1.465
-0.311,0.095,0.924,0.122,1.892,2.075
-0.313,0.092,0.919,0.244,0.610,1.648
-0.313,0.093,0.920,-0.305,0.854,1.770
-0.313,0.087,0.919,-0.244,1.709,1.038
-0.310,0.090,0.919,-0.977,1.099,-0.183
-0.314,0.093,0.918,-1.221,0.854,-0.549
-0.319,0.097,0.919,-0.916,2.136,-0.916
-0.312,0.105,0.913,-1.648,0.854,0.244
-0.313,0.106,0.919,-2.625,0.427,1.526
-0.321,0.109,0.923,-0.427,1.282,1.038
-0.317,0.114,0.915,0.610,2.197,0.732
-0.312,0.110,0.916,0.488,2.502,2.563
-0.312,0.102,0.920,-0.183,3.357,3.052
-0.303,0.095,0.918,0.366,1.648,1.953
-0.311,0.102,0.919,0.305,1.282,0.549
-0.318,0.102,0.918,0.244,0.977,-0.427
-0.321,0.108,0.920,1.160,1.648,-0.977
-0.314,0.123,0.925,0.122,-0.427,0.366
-0.317,0.106,0.902,-1.465,-0.122,3.540
-0.315,0.104,0.925,0.000,3.845,0.610
-0.315,0.113,0.928,2.502,1.526,-0.854
-0.314,0.111,0.911,2.319,1.221,-0.427
-0.311,0.100,0.921,1.587,1.770,0.549
-0.308,0.095,0.917,1.099,1.587,0.488
-0.313,0.102,0.916,0.000,0.549,-0.549
-0.325,0.118,0.919,0.183,0.732,-1.099
-0.325,0.121,0.916,0.549,0.732,0.183
-0.319,0.112,0.913,1.343,1.648,1.465
-0.313,0.105,0.914,0.732,3.113,1.648
-0.307,0.107,0.917,-0.610,2.014,1.099
-0.311,0.119,0.920,-0.854,2.686,0.183
-0.312,0.125,0.919,0.000,1.343,1.282
-0.317,0.123,0.923,1.099,0.854,2.686
-0.320,0.117,0.920,3.479,2.197,2.014
-0.317,0.112,0.912,4.028,2.136,2.136
-0.318,0.104,0.911,2.441,2.014,1.648
-0.311,0.100,0.920,1.465,2.319,1.404
-0.306,0.099,0.919,1.282,2.014,0.854
-0.306,0.103,0.916,-0.732,0.854,0.183
-0.311,0.120,0.921,-1.282,0.183,-0.793
-0.321,0.121,0.917,-0.061,0.916,-0.244
-0.325,0.125,0.916,1.160,0.366,0.366
-0.324,0.116,0.916,2.136,2.136,0.854
-0.317,0.099,0.911,2.808,2.441,0.549
-0.311,0.097,0.917,0.732,1.526,-0.488
-0.311,0.110,0.915,-0.916,1.221,-1.343
-0.315,0.125,0.915,-0.732,0.854,-0.854
-0.323,0.130,0.921,-0.183,1.099,0.549
-0.325,0.123,0.914,2.380,2.075,1.526
-0.322,0.114,0.914,1.831,2.563,2.197
-0.317,0.109,0.917,1.831,2.686,2.258

-0.312,0.106,0.915,1.404,2.258,0.732
-0.311,0.108,0.915,0.061,2.258,-0.183
-0.312,0.106,0.914,-0.977,1.343,0.366
-0.315,0.113,0.915,-2.563,0.793,0.183
-0.320,0.132,0.922,-1.831,0.977,0.305
-0.327,0.141,0.918,0.793,1.282,0.488
-0.326,0.133,0.915,3.052,1.892,2.075
-0.319,0.111,0.913,4.211,2.747,2.563
-0.311,0.098,0.912,2.930,3.296,1.770
-0.307,0.098,0.914,0.183,1.953,0.427
-0.309,0.113,0.917,-1.221,1.343,-0.549
-0.321,0.130,0.919,-1.648,1.038,-0.488
-0.327,0.138,0.917,-0.061,0.244,1.404
-0.325,0.133,0.916,1.953,1.465,2.991
-0.319,0.116,0.915,2.991,2.014,3.601
-0.314,0.108,0.912,3.052,3.113,2.258
-0.311,0.105,0.912,0.610,1.770,1.587
-0.313,0.111,0.918,0.122,1.953,1.160
-0.319,0.122,0.915,0.610,1.709,1.038
-0.320,0.120,0.916,0.549,1.526,1.038
-0.322,0.124,0.914,1.221,1.770,1.038
-0.317,0.114,0.911,1.892,2.014,1.770
-0.312,0.101,0.912,0.305,1.160,1.282
-0.306,0.093,0.913,-1.831,1.648,-0.549
-0.303,0.099,0.911,-4.883,-0.732,-2.502
-0.311,0.112,0.903,-7.935,-0.732,-2.502
-0.318,0.128,0.907,-11.169,-1.160,-1.465
-0.331,0.156,0.924,-10.803,-2.258,-1.343
-0.354,0.173,0.897,-5.249,-0.427,-1.709
-0.344,0.167,0.911,0.244,2.075,-1.709
-0.330,0.154,0.905,2.258,4.150,0.244
-0.317,0.131,0.908,1.038,2.686,0.732
-0.312,0.131,0.913,-0.854,1.892,0.977
-0.311,0.140,0.909,-2.991,-0.305,0.244
-0.319,0.159,0.910,-3.296,-0.732,-0.488
-0.328,0.169,0.910,-0.854,0.793,0.061
-0.334,0.169,0.904,-0.061,1.587,0.854
-0.326,0.160,0.906,1.038,3.418,1.282
-0.317,0.148,0.910,0.427,2.991,1.709
-0.313,0.143,0.909,-0.916,1.160,0.916
-0.323,0.160,0.908,-0.671,0.305,0.549
-0.329,0.172,0.908,0.244,0.916,1.038
-0.331,0.169,0.904,0.732,1.526,2.625
-0.322,0.156,0.911,3.113,3.906,2.380
-0.317,0.148,0.911,3.418,3.601,1.526
-0.310,0.144,0.908,1.709,2.014,1.404
-0.314,0.148,0.910,-0.305,0.183,0.732
-0.325,0.163,0.907,-0.183,1.587,0.427
-0.331,0.171,0.909,-0.122,0.549,1.343
-0.334,0.172,0.910,2.747,2.441,2.197
-0.333,0.166,0.905,4.333,3.418,2.686
-0.321,0.149,0.908,4.272,2.930,3.723
-0.319,0.149,0.912,3.662,3.784,2.319
-0.319,0.158,0.913,4.822,3.845,2.136
-0.318,0.155,0.907,6.287,3.967,3.357
-0.319,0.149,0.913,5.066,4.395,4.517
-0.317,0.147,0.915,6.592,4.456,3.723
-0.320,0.142,0.919,9.338,5.371,3.235
-0.315,0.129,0.914,10.193,5.188,4.150
-0.313,0.111,0.902,7.263,3.784,3.967
-0.303,0.093,0.899,1.831,4.089,3.479
-0.303,0.099,0.919,-3.418,1.953,2.319
-0.305,0.121,0.926,-3.906,-0.305,0.000
-0.314,0.144,0.918,-1.465,-0.305,-1.099
-0.323,0.155,0.914,0.549,1.465,-0.305
-0.325,0.145,0.917,2.197,1.648,1.160
-0.315,0.120,0.908,3.540,2.319,1.831
-0.307,0.110,0.913,1.648,2.014,0.671
-0.302,0.112,0.916,-0.610,1.587,-0.793
-0.307,0.125,0.917,-2.502,-0.549,-1.099
-0.316,0.147,0.911,-2.075,0.000,-1.770
-0.323,0.153,0.916,-2.014,0.305,-0.793
-0.325,0.151,0.917,1.099,0.854,0.305
-0.325,0.144,0.913,2.136,1.526,0.244
-0.318,0.130,0.905,2.686,2.808,1.038
-0.307,0.126,0.911,0.000,1.587,1.221
-0.307,0.128,0.918,-0.732,1.465,0.793
-0.314,0.142,0.918,-0.916,0.977,-0.061
-0.323,0.153,0.910,0.000,1.038,0.000
-0.330,0.155,0.911,1.038,2.625,1.465
-0.322,0.147,0.912,2.930,2.991,3.113
-0.313,0.131,0.910,2.625,3.174,2.869
-0.306,0.120,0.914,1.221,2.625,1.343
-0.306,0.124,0.913,-0.427,1.953,-0.183
-0.313,0.140,0.914,-1.099,1.038,-0.732
-0.322,0.156,0.912,-1.099,0.000,-0.427
-0.328,0.159,0.911,0.977,1.282,1.343
-0.326,0.150,0.911,2.563,1.953,2.991
-0.318,0.135,0.912,3.601,2.747,3.418
-0.306,0.121,0.915,2.808,2.380,2.136
-0.305,0.122,0.913,0.977,1.038,0.610
-0.314,0.135,0.911,-0.122,0.793,-0.610
-0.321,0.150,0.913,-0.488,1.465,-0.122
-0.328,0.158,0.912,0.366,0.427,1.587
-0.325,0.149,0.911,2.869,2.991,2.747
-0.318,0.135,0.912,3.418,3.662,2.991
-0.312,0.121,0.910,1.831,2.136,1.770
-0.310,0.121,0.911,0.122,1.221,0.916
-0.312,0.132,0.914,-1.465,0.671,-0.366
-0.316,0.147,0.916,-0.610,0.671,0.244

-0.328,0.155,0.912,0.183,1.404,0.793
-0.325,0.148,0.912,2.441,2.502,2.136
-0.321,0.138,0.908,2.258,1.221,2.563
-0.315,0.130,0.912,1.831,2.686,1.831
-0.313,0.127,0.910,1.038,2.625,0.366
-0.312,0.133,0.914,0.244,0.732,-0.610
-0.317,0.143,0.912,-1.038,0.244,-0.244
-0.322,0.150,0.913,-0.183,1.587,0.122
-0.327,0.155,0.915,1.038,1.160,1.160
-0.324,0.146,0.908,2.869,2.563,2.258
-0.318,0.134,0.908,3.052,2.930,2.502
-0.311,0.121,0.914,0.610,1.770,1.099
-0.310,0.128,0.911,-0.183,0.793,0.061
-0.317,0.144,0.914,-1.038,0.061,-0.427
-0.325,0.155,0.913,-0.427,0.610,0.244
-0.327,0.158,0.911,0.977,1.099,2.136
-0.326,0.147,0.911,2.258,3.174,2.380
-0.320,0.136,0.911,2.319,2.747,1.831
-0.315,0.130,0.910,1.709,1.892,1.404
-0.311,0.129,0.910,-0.427,0.732,0.549
-0.313,0.140,0.913,-0.732,1.770,-0.732
-0.319,0.151,0.913,-1.099,0.183,-0.488
-0.329,0.162,0.911,1.038,1.465,1.038
-0.327,0.154,0.911,2.625,2.625,2.319
-0.323,0.140,0.910,3.174,2.991,2.625
-0.317,0.131,0.907,2.869,2.441,2.075
-0.314,0.128,0.911,0.977,1.892,0.610
-0.316,0.139,0.911,-0.671,0.549,-0.488
-0.319,0.150,0.911,-0.916,1.526,-0.549
-0.325,0.157,0.912,-0.061,0.549,0.671
-0.328,0.158,0.913,1.343,1.831,2.502
-0.323,0.144,0.911,2.197,2.136,2.808
-0.318,0.134,0.909,2.869,1.892,2.502
-0.316,0.128,0.911,1.648,2.258,1.404
-0.314,0.132,0.909,0.244,1.526,0.488
-0.316,0.138,0.911,-0.610,0.916,-0.122
-0.323,0.152,0.914,-0.427,0.488,0.061
-0.326,0.157,0.912,0.488,1.770,0.793
-0.326,0.154,0.911,2.136,2.014,2.136
-0.322,0.141,0.907,2.625,3.296,2.136
-0.316,0.130,0.908,1.526,2.014,1.892
-0.314,0.128,0.911,0.610,1.038,1.099
-0.316,0.138,0.911,0.061,1.038,0.061
-0.321,0.151,0.911,0.244,1.160,0.305
-0.324,0.153,0.915,0.854,1.770,0.977
-0.326,0.152,0.910,1.221,1.404,1.465
-0.321,0.142,0.910,2.258,2.136,1.648
-0.318,0.136,0.908,1.587,2.502,2.014
-0.318,0.135,0.913,0.610,1.892,1.526
-0.317,0.141,0.911,0.793,1.038,0.671
-0.320,0.144,0.906,-0.122,1.221,0.122
-0.323,0.148,0.912,-0.183,1.709,0.671
-0.326,0.150,0.911,0.671,0.916,0.977
-0.323,0.150,0.910,1.282,1.953,1.221
-0.322,0.140,0.911,1.831,2.930,1.648
-0.317,0.135,0.908,2.075,2.563,1.404
-0.317,0.138,0.912,0.000,1.343,0.244
-0.323,0.147,0.913,0.366,1.038,0.244
-0.326,0.154,0.908,1.099,1.587,0.671
-0.324,0.151,0.911,1.587,2.563,1.587
-0.318,0.138,0.911,1.831,3.052,1.831
-0.318,0.137,0.908,0.916,0.977,1.221
-0.322,0.140,0.909,1.038,2.808,0.427
-0.321,0.147,0.912,0.671,0.793,0.854
-0.322,0.147,0.909,0.244,1.038,1.282
-0.321,0.146,0.911,1.526,2.686,1.099
-0.322,0.145,0.912,1.770,2.014,1.404
-0.323,0.141,0.907,1.587,2.319,1.160
-0.319,0.141,0.911,0.916,1.831,1.404
-0.320,0.143,0.911,0.671,2.014,0.305
-0.324,0.149,0.908,0.549,1.526,0.488
-0.321,0.146,0.910,0.793,1.099,1.404
-0.321,0.146,0.910,0.305,1.282,1.282
-0.323,0.146,0.912,1.831,2.563,1.343
-0.320,0.141,0.908,1.404,1.160,1.282
-0.320,0.141,0.909,0.977,1.282,0.732
-0.323,0.146,0.910,0.610,1.221,0.916
-0.322,0.148,0.909,0.549,1.892,1.038
-0.321,0.144,0.912,1.526,2.441,1.404
-0.320,0.139,0.910,1.343,0.793,1.221
-0.317,0.136,0.910,0.549,0.916,0.854
-0.319,0.139,0.912,-0.061,0.488,0.305
-0.323,0.151,0.913,-0.244,1.282,-0.549
-0.325,0.155,0.907,0.854,1.892,0.488
-0.325,0.153,0.910,0.977,2.625,1.282
-0.324,0.145,0.912,2.014,2.930,1.282
-0.319,0.142,0.907,1.343,1.343,1.404
-0.321,0.146,0.909,1.160,2.869,1.282
-0.323,0.149,0.912,1.404,1.709,1.892
-0.321,0.147,0.908,0.916,1.709,1.587
-0.321,0.142,0.911,1.038,2.075,1.709
-0.320,0.138,0.909,1.282,1.221,1.526
-0.318,0.140,0.908,0.854,2.319,0.793
-0.322,0.147,0.911,-0.061,2.197,0.366
-0.324,0.151,0.912,-0.244,1.038,0.488
-0.323,0.151,0.911,1.282,2.563,0.366
-0.322,0.146,0.910,1.282,1.038,1.099
-0.320,0.140,0.910,1.709,1.709,1.160
-0.320,0.144,0.911,0.244,1.648,0.183
-0.324,0.149,0.908,0.671,0.916,1.038

-0.323,0.152,0.911,0.549,1.038,1.526
-0.322,0.151,0.909,1.587,2.625,1.160
-0.323,0.146,0.911,2.258,2.319,1.648
-0.321,0.142,0.906,1.099,0.793,1.953
-0.323,0.141,0.909,0.793,1.221,1.648
-0.322,0.146,0.912,1.587,2.197,0.732
-0.324,0.149,0.905,0.610,1.404,0.610
-0.321,0.149,0.912,0.854,2.502,0.977
-0.319,0.146,0.913,1.221,1.038,1.526
-0.324,0.144,0.909,0.916,1.770,0.671
-0.322,0.147,0.910,1.038,1.953,0.854
-0.321,0.149,0.908,0.916,1.587,1.465
-0.323,0.149,0.910,0.671,1.587,0.793
-0.325,0.149,0.912,2.197,2.136,0.916
-0.325,0.143,0.903,0.916,1.953,1.404
-0.320,0.145,0.910,1.038,1.831,1.831
-0.321,0.145,0.911,0.610,0.854,0.854
-0.321,0.150,0.905,1.221,2.441,0.488
-0.324,0.149,0.912,1.221,1.770,1.160
-0.322,0.145,0.908,1.404,2.380,1.221
-0.321,0.142,0.908,1.038,2.502,0.977
-0.319,0.142,0.912,0.916,1.709,1.343
-0.319,0.147,0.909,0.366,0.610,0.916
-0.325,0.152,0.912,1.587,2.075,0.610
-0.324,0.148,0.909,1.221,1.099,1.160
-0.319,0.142,0.908,1.221,1.465,1.831
-0.321,0.142,0.913,1.465,2.136,1.038
-0.323,0.149,0.907,0.610,1.709,0.244
-0.322,0.152,0.909,0.488,1.221,1.160
-0.322,0.147,0.912,1.038,1.221,1.709
-0.321,0.142,0.907,1.770,2.808,1.282
-0.320,0.142,0.909,0.610,2.319,0.854
-0.322,0.147,0.911,0.122,1.831,0.793
-0.325,0.150,0.911,0.610,1.404,0.671
-0.322,0.149,0.910,1.099,1.160,1.221
-0.320,0.145,0.909,0.732,0.916,1.770
-0.322,0.141,0.910,0.732,2.380,0.854
-0.322,0.145,0.908,1.343,2.136,0.488
-0.323,0.150,0.910,0.916,1.526,0.793
-0.322,0.150,0.912,0.549,2.502,1.038
-0.320,0.146,0.912,1.404,1.404,2.014
-0.320,0.143,0.909,0.793,1.770,1.282
-0.322,0.147,0.909,0.366,1.038,0.977
-0.322,0.147,0.911,0.671,2.747,1.099
-0.321,0.148,0.911,1.343,1.831,1.465
-0.323,0.149,0.913,0.854,0.854,1.282
-0.322,0.147,0.908,1.343,1.282,1.221
-0.325,0.146,0.911,1.282,2.930,0.977
-0.321,0.143,0.909,1.282,2.502,0.854
-0.319,0.148,0.908,0.549,1.343,0.854
-0.321,0.149,0.911,0.977,2.502,0.916
-0.323,0.147,0.909,1.221,2.014,0.977
-0.324,0.149,0.910,1.160,1.465,0.916
-0.321,0.147,0.908,0.610,1.221,1.648
-0.319,0.145,0.911,0.610,1.465,1.099
-0.324,0.148,0.911,0.488,1.404,0.549
-0.323,0.148,0.908,1.038,1.160,1.282
-0.322,0.147,0.908,1.160,2.808,1.160
-0.320,0.142,0.911,1.587,1.709,1.587
-0.320,0.146,0.911,0.916,1.648,0.671
-0.322,0.150,0.907,0.366,1.465,0.854
-0.321,0.149,0.913,1.587,2.197,1.343
-0.320,0.145,0.911,0.916,1.587,1.343
-0.320,0.144,0.907,0.671,1.953,1.221
-0.320,0.144,0.912,0.916,2.625,0.732
-0.323,0.148,0.908,1.282,1.160,0.977
-0.325,0.150,0.909,0.916,2.319,0.916
-0.320,0.147,0.909,1.160,2.380,1.770
-0.320,0.143,0.914,1.099,1.465,1.465
-0.322,0.145,0.909,1.526,2.380,0.671
-0.321,0.147,0.908,0.610,1.221,1.160
-0.323,0.152,0.912,0.122,1.770,0.793
-0.323,0.152,0.911,1.465,1.892,1.343
-0.321,0.147,0.911,1.953,2.380,1.770
-0.318,0.140,0.908,0.732,1.160,1.648
-0.321,0.142,0.910,0.183,1.587,0.610
-0.323,0.151,0.909,-0.061,0.854,0.488
-0.325,0.157,0.909,1.404,2.197,1.404
-0.323,0.148,0.911,2.258,2.380,1.770
-0.321,0.137,0.907,1.770,2.319,1.526
-0.319,0.140,0.911,0.854,2.380,1.221
-0.321,0.150,0.910,0.000,1.038,0.183
-0.325,0.157,0.908,0.000,0.977,0.916
-0.322,0.153,0.914,0.977,2.502,1.709
-0.320,0.145,0.908,1.587,2.136,1.709
-0.320,0.140,0.911,1.770,2.197,0.977
-0.320,0.148,0.907,0.488,0.671,0.854
-0.324,0.153,0.908,0.732,2.319,0.610
-0.325,0.154,0.911,1.221,2.747,0.732
-0.321,0.148,0.908,1.953,1.770,1.648
-0.320,0.143,0.910,1.221,1.343,1.770
-0.321,0.146,0.911,0.305,0.977,0.916
-0.325,0.151,0.908,0.671,2.014,0.183
-0.325,0.152,0.910,0.549,2.197,1.099
-0.322,0.148,0.911,1.221,1.770,1.648
-0.320,0.145,0.909,1.343,2.319,0.977
-0.321,0.146,0.909,0.549,2.258,0.793
-0.326,0.149,0.907,0.854,1.892,1.038
-0.322,0.153,0.912,1.221,1.831,1.221
-0.321,0.151,0.911,0.854,2.258,1.221

-0.323,0.147,0.910,1.587,1.770,1.099
-0.322,0.146,0.908,1.709,1.892,0.977
-0.322,0.149,0.907,0.610,1.282,0.916
-0.320,0.150,0.912,0.366,0.854,1.404
-0.325,0.152,0.911,1.465,1.221,1.343
-0.323,0.151,0.908,2.075,1.831,1.465
-0.321,0.146,0.910,1.221,2.258,1.404
-0.320,0.146,0.907,0.854,1.526,1.465
-0.322,0.149,0.911,0.610,0.977,1.038
-0.326,0.153,0.908,0.488,0.671,0.671
-0.324,0.153,0.906,1.160,1.648,1.465
-0.323,0.146,0.912,1.770,2.563,1.343
-0.320,0.145,0.907,1.465,2.441,0.610
-0.320,0.147,0.909,0.549,2.563,0.732
-0.324,0.151,0.911,0.916,1.892,0.793
-0.324,0.152,0.909,0.549,1.465,1.221
-0.323,0.150,0.909,0.732,1.709,1.343
-0.321,0.149,0.910,1.221,2.258,1.343
-0.323,0.146,0.908,1.526,1.587,1.343
-0.324,0.148,0.908,1.099,1.587,1.221
-0.322,0.151,0.909,0.305,2.380,0.793
-0.323,0.153,0.911,0.671,2.319,0.671
-0.325,0.153,0.910,1.160,2.319,0.793
-0.322,0.149,0.907,0.793,1.404,1.282
-0.323,0.144,0.912,1.221,2.869,1.099
-0.322,0.149,0.909,0.916,0.732,1.404
-0.322,0.152,0.908,0.854,1.404,1.282
-0.324,0.151,0.911,0.732,2.502,0.671
-0.324,0.151,0.909,0.732,1.587,0.610
-0.322,0.146,0.910,1.526,2.869,1.709
-0.320,0.146,0.910,1.038,1.099,1.465
-0.322,0.152,0.909,0.183,0.977,0.549
-0.326,0.155,0.909,1.282,2.136,1.038
-0.325,0.152,0.909,1.099,2.441,1.038
-0.323,0.144,0.909,1.831,2.808,1.221
-0.320,0.148,0.909,1.404,2.258,1.038
-0.321,0.153,0.911,0.122,1.648,0.732
-0.326,0.154,0.909,0.488,1.404,0.977
-0.323,0.152,0.906,1.953,1.892,1.587
-0.319,0.146,0.910,0.793,1.160,1.892
-0.321,0.145,0.909,0.916,2.441,0.732
-0.325,0.153,0.910,0.977,0.916,0.671
-0.326,0.155,0.908,0.854,1.099,1.404
-0.324,0.153,0.910,1.221,2.563,1.404
-0.321,0.144,0.909,1.404,2.625,0.916
-0.321,0.146,0.907,0.549,2.258,0.671
-0.323,0.151,0.911,0.366,2.197,0.549
-0.325,0.153,0.908,1.221,2.625,0.793
-0.324,0.152,0.911,1.404,2.930,1.282
-0.320,0.147,0.910,1.648,1.343,1.892
-0.321,0.146,0.909,0.671,2.075,0.854
-0.325,0.147,0.908,0.977,1.831,0.732
-0.324,0.153,0.909,0.732,2.014,0.793
-0.323,0.152,0.910,1.099,1.160,1.831
-0.322,0.147,0.911,0.732,1.343,1.221
-0.323,0.149,0.908,0.977,1.038,0.916
-0.323,0.151,0.906,1.343,2.319,1.099
-0.323,0.154,0.910,1.160,2.808,1.038
-0.322,0.149,0.911,1.465,1.526,1.465
-0.322,0.147,0.907,1.099,2.075,0.854
-0.323,0.149,0.909,0.671,2.258,0.610
-0.324,0.151,0.910,1.282,2.197,1.038
-0.322,0.152,0.910,0.916,2.686,0.916
-0.323,0.151,0.910,0.671,2.258,0.732
-0.324,0.148,0.909,1.160,2.136,1.526
-0.320,0.146,0.908,0.427,1.770,0.977
-0.324,0.150,0.909,0.671,2.441,0.610
-0.323,0.156,0.912,0.916,1.038,1.038
-0.322,0.155,0.910,1.526,1.587,1.831
-0.325,0.147,0.910,1.526,2.625,1.404
-0.322,0.145,0.908,1.221,1.038,1.709
-0.319,0.144,0.908,0.977,1.160,1.282
-0.325,0.155,0.906,0.000,2.930,0.732
-0.329,0.159,0.911,-0.244,2.563,1.343
-0.322,0.155,0.911,0.427,2.625,2.014
-0.318,0.148,0.909,1.038,2.747,2.197
-0.318,0.142,0.911,1.770,2.563,1.221
-0.324,0.150,0.904,0.000,2.075,0.000
-0.323,0.158,0.911,0.671,1.892,1.160
-0.324,0.155,0.911,0.916,2.014,1.221
-0.318,0.147,0.910,1.404,1.404,1.404
-0.317,0.144,0.911,1.099,0.671,1.526
-0.321,0.149,0.906,1.038,1.953,0.488
-0.323,0.154,0.907,0.305,1.099,0.793
-0.322,0.153,0.909,0.916,1.221,1.221
-0.320,0.152,0.911,1.526,1.709,1.099
-0.322,0.151,0.908,1.099,0.977,1.343
-0.322,0.151,0.909,1.465,1.526,1.099
-0.324,0.150,0.910,1.221,2.625,0.732
-0.323,0.152,0.907,0.488,1.282,0.916
-0.321,0.150,0.911,0.854,2.441,1.038
-0.320,0.150,0.909,0.977,2.319,0.916
-0.323,0.154,0.908,1.038,0.793,1.099
-0.323,0.151,0.906,0.549,0.916,1.221
-0.321,0.150,0.910,1.526,2.258,1.404
-0.320,0.150,0.910,1.282,2.319,0.854
-0.324,0.151,0.908,0.488,1.160,0.671
-0.323,0.153,0.910,1.526,1.709,1.282
-0.323,0.151,0.907,0.671,1.465,1.038
-0.322,0.151,0.911,1.160,1.282,1.343

-0.322,0.153,0.910,1.465,1.526,1.221
-0.324,0.153,0.908,0.549,1.770,0.977
-0.321,0.150,0.908,0.793,2.014,1.221
-0.321,0.149,0.907,0.488,1.099,1.221
-0.325,0.151,0.910,0.610,1.953,0.549
-0.326,0.153,0.905,0.488,1.892,0.916
-0.324,0.152,0.907,1.099,2.380,1.221
-0.322,0.150,0.911,1.770,1.892,1.282
-0.322,0.151,0.908,1.526,1.404,0.977
-0.323,0.151,0.908,1.099,2.502,0.854
-0.320,0.151,0.910,1.038,1.038,1.404
-0.323,0.153,0.909,1.160,1.465,1.099
-0.325,0.154,0.906,1.160,2.563,1.038
-0.322,0.152,0.910,1.343,2.136,1.587
-0.321,0.148,0.908,1.770,1.953,1.282
-0.322,0.149,0.907,0.671,1.038,0.854
-0.323,0.150,0.909,0.916,2.686,0.732
-0.323,0.155,0.911,0.732,2.380,0.488
-0.327,0.156,0.905,1.465,2.258,1.160
-0.323,0.149,0.911,1.526,2.869,1.465
-0.320,0.146,0.906,0.732,2.258,1.404
-0.323,0.151,0.912,0.854,2.625,0.366
-0.324,0.155,0.908,1.282,2.258,0.549
-0.324,0.155,0.907,0.793,1.526,1.160
-0.324,0.150,0.911,1.099,1.404,1.404
-0.323,0.149,0.907,1.282,0.854,1.404
-0.321,0.150,0.909,0.366,1.404,0.671
-0.322,0.153,0.908,0.793,2.197,0.793
-0.326,0.155,0.911,1.587,2.075,0.977
-0.324,0.152,0.909,1.282,2.136,1.038
-0.322,0.147,0.905,0.854,1.831,1.221
-0.321,0.147,0.911,0.793,0.977,0.854
-0.324,0.153,0.908,0.427,0.549,1.038
-0.324,0.157,0.908,0.427,1.221,1.099
-0.324,0.156,0.907,1.099,2.197,0.916
-0.324,0.150,0.906,1.221,2.869,1.221
-0.321,0.148,0.908,0.244,1.648,0.916
-0.325,0.151,0.910,0.732,2.258,0.793
-0.325,0.154,0.908,1.526,2.136,0.732
-0.326,0.155,0.906,0.793,2.014,0.916
-0.323,0.149,0.909,1.282,2.869,0.916
-0.321,0.150,0.905,1.526,2.197,0.854
-0.323,0.150,0.907,0.427,1.282,0.916
-0.325,0.151,0.911,0.244,1.831,0.427
-0.323,0.158,0.905,1.465,1.953,0.854
-0.325,0.155,0.910,0.488,1.709,0.977
-0.326,0.152,0.908,1.465,1.099,1.709
-0.323,0.151,0.907,1.892,2.258,1.221
-0.323,0.150,0.909,0.793,1.953,1.038
-0.322,0.153,0.908,0.732,0.977,1.465
-0.325,0.152,0.908,0.671,1.404,0.793
-0.327,0.154,0.907,0.854,2.136,0.732
-0.323,0.151,0.906,0.366,1.099,1.526
-0.322,0.150,0.911,0.488,1.953,1.038
-0.322,0.151,0.909,0.610,2.014,0.427
-0.323,0.152,0.906,0.244,1.221,0.671
-0.324,0.153,0.909,0.549,2.258,0.854
-0.326,0.153,0.910,1.770,2.075,0.977
-0.325,0.153,0.904,1.648,2.136,0.793
-0.323,0.151,0.906,1.099,1.953,1.160
-0.326,0.154,0.908,0.610,2.014,0.854
-0.325,0.155,0.907,1.343,1.343,1.099
-0.325,0.150,0.907,0.854,2.136,0.671
-0.322,0.150,0.907,0.671,1.343,1.099
-0.321,0.154,0.911,1.099,2.136,1.221
-0.324,0.156,0.906,0.549,0.610,1.465
-0.325,0.155,0.907,0.610,1.648,1.160
-0.323,0.151,0.908,0.732,1.160,1.404
-0.324,0.149,0.905,1.526,2.075,1.404
-0.323,0.151,0.910,1.282,2.502,1.221
-0.325,0.154,0.908,0.732,0.488,0.916
-0.325,0.158,0.905,0.549,1.709,0.916
-0.326,0.153,0.908,1.831,2.625,1.099
-0.322,0.151,0.908,1.343,1.221,1.221
-0.322,0.152,0.910,0.549,1.343,0.916
-0.323,0.153,0.906,0.305,0.793,1.404
-0.325,0.155,0.910,1.160,1.709,1.282
-0.326,0.155,0.907,1.160,1.038,0.977
-0.324,0.153,0.905,1.465,1.404,1.587
-0.322,0.148,0.908,0.671,1.099,1.526
-0.323,0.150,0.911,1.343,2.441,0.671
-0.324,0.156,0.905,1.160,1.831,0.854
-0.325,0.156,0.908,1.404,2.014,1.282
-0.327,0.155,0.909,0.793,2.258,0.916
-0.323,0.153,0.905,1.343,1.404,1.343
-0.322,0.149,0.909,0.916,2.747,1.282
-0.324,0.149,0.908,0.488,1.648,1.038
-0.322,0.155,0.908,1.099,2.686,0.549
-0.325,0.158,0.908,0.488,1.221,0.916
-0.326,0.155,0.907,1.587,1.770,1.404
-0.323,0.149,0.907,1.343,1.648,1.404
-0.321,0.151,0.908,0.916,2.258,1.160
-0.325,0.153,0.907,0.305,2.075,0.793
-0.326,0.156,0.907,0.977,1.587,0.488
-0.326,0.154,0.904,1.587,2.136,0.977
-0.325,0.154,0.908,0.732,2.380,1.038
-0.321,0.154,0.911,0.916,1.648,1.587
-0.322,0.152,0.911,1.038,1.465,1.282
-0.324,0.153,0.905,1.160,0.916,1.099
-0.324,0.153,0.910,1.221,1.587,1.587

-0.324,0.154,0.909,0.854,1.465,1.648
-0.323,0.153,0.906,1.160,0.854,1.343
-0.326,0.155,0.908,1.343,1.831,1.038
-0.325,0.153,0.904,0.793,0.977,1.648
-0.322,0.150,0.909,1.709,2.991,1.282
-0.321,0.150,0.909,0.610,1.709,0.610
-0.324,0.156,0.908,0.916,2.075,0.488
-0.326,0.157,0.908,0.549,1.160,1.221
-0.324,0.157,0.910,0.610,2.136,1.343
-0.322,0.151,0.908,0.732,1.404,1.526
-0.322,0.149,0.908,0.549,0.854,1.038
-0.325,0.154,0.907,1.038,1.221,0.854
-0.326,0.157,0.907,0.610,0.854,1.221
-0.325,0.156,0.908,0.732,2.136,1.099
-0.324,0.153,0.909,1.038,2.197,1.038
-0.325,0.152,0.909,1.709,2.441,0.732
-0.323,0.154,0.907,1.404,1.343,1.160
-0.325,0.156,0.908,0.732,1.221,1.038
-0.323,0.156,0.911,1.038,1.526,1.099
-0.323,0.157,0.908,1.160,1.282,1.221
-0.325,0.153,0.907,1.648,2.319,1.404
-0.324,0.149,0.907,0.671,1.526,1.465
-0.322,0.152,0.910,0.427,2.197,1.160
-0.323,0.157,0.908,0.977,2.258,0.793
-0.327,0.158,0.907,0.549,1.221,1.099
-0.323,0.153,0.910,1.282,1.648,1.709
-0.322,0.149,0.908,1.587,2.319,1.160
-0.323,0.151,0.908,0.549,0.977,0.488
-0.327,0.159,0.905,0.305,1.587,1.038
-0.327,0.159,0.910,0.977,2.747,1.343
-0.325,0.158,0.908,1.465,2.686,1.038
-0.322,0.147,0.905,0.916,1.465,1.465
-0.324,0.145,0.908,0.977,1.160,1.038
-0.327,0.155,0.908,0.183,1.709,-0.061
-0.324,0.165,0.907,0.061,1.526,0.732
-0.329,0.162,0.908,1.526,2.747,1.221
-0.322,0.149,0.908,2.197,3.113,1.343
-0.318,0.146,0.907,1.343,2.563,1.282
-0.324,0.147,0.906,0.000,1.831,0.427
-0.328,0.160,0.908,-0.305,1.099,0.366
-0.327,0.164,0.907,0.610,2.197,1.343
-0.323,0.153,0.908,0.793,1.282,1.831
-0.322,0.146,0.907,1.282,2.136,1.282
-0.323,0.149,0.906,0.488,2.258,0.427
-0.325,0.161,0.908,0.183,2.014,0.305
-0.328,0.159,0.907,0.610,1.038,1.099
-0.327,0.157,0.908,1.404,1.221,1.160
-0.325,0.152,0.907,0.549,2.258,1.221
-0.323,0.151,0.907,0.061,1.282,1.099
-0.324,0.158,0.911,1.099,2.136,0.305
-0.327,0.162,0.907,0.793,1.953,0.427
-0.324,0.158,0.907,1.465,1.648,1.831
-0.325,0.152,0.905,1.404,1.770,2.014
