aX,aY,aZ,gX,gY,gZ
-0.132,-0.045,0.967,1.282,1.160,1.892
-0.087,-0.003,0.961,0.732,1.587,1.587
-0.042,0.005,0.960,0.977,1.953,1.038
-0.070,-0.033,0.967,0.977,1.709,1.953
-0.066,-0.025,0.965,1.282,1.404,1.404
-0.087,-0.021,0.973,0.793,1.404,1.953
-0.088,-0.016,0.970,0.671,1.099,1.953
-0.086,-0.021,0.960,1.160,1.221,2.014
-0.087,-0.021,0.967,0.427,1.709,1.831
-0.079,-0.027,0.963,1.770,1.953,1.831
-0.086,-0.027,0.962,0.793,1.892,0.610
-0.088,-0.021,0.975,0.977,2.197,0.854
-0.089,-0.013,0.971,1.587,1.587,1.038
-0.094,-0.014,0.964,1.770,1.709,1.160
-0.051,0.009,0.971,1.038,2.075,2.136
-0.043,-0.013,0.966,0.977,2.197,1.831
-0.101,-0.050,0.980,0.671,1.526,1.587
-0.129,-0.043,0.965,1.526,0.732,1.343
-0.133,-0.049,0.969,0.793,1.099,1.648
-0.079,-0.008,0.967,0.244,1.221,1.831
-0.036,0.001,0.958,0.610,1.648,1.221
-0.076,0.009,0.964,0.854,1.892,0.610
-0.068,-0.025,0.968,0.549,1.343,1.160

-0.091,-0.012,0.971,1.099,0.671,0.916
-0.090,-0.014,0.961,1.404,0.671,1.160
-0.095,-0.017,0.962,0.488,1.892,1.648
-0.091,-0.019,0.967,0.916,2.197,2.563
-0.086,-0.021,0.970,0.671,2.075,2.625
-0.086,-0.024,0.969,0.916,1.526,2.075
-0.088,-0.026,0.967,0.793,1.587,1.831
-0.092,-0.024,0.964,0.732,1.343,1.526
-0.092,-0.022,0.961,1.038,1.343,1.282
-0.089,-0.023,0.965,1.099,1.953,1.282
-0.124,-0.041,0.963,0.977,2.014,1.221
-0.061,0.006,0.965,0.854,1.892,1.404
-0.045,0.000,0.958,1.099,2.136,0.854
-0.101,-0.041,0.969,0.427,2.014,1.099
-0.089,-0.042,0.968,1.282,1.648,1.099
-0.139,-0.041,0.975,1.038,1.892,1.343
-0.099,0.000,0.970,0.244,1.465,1.953
-0.045,0.009,0.952,0.977,1.892,1.648
-0.046,0.012,0.961,0.183,2.625,1.770
-0.056,-0.019,0.967,0.366,2.686,1.648
-0.118,-0.053,0.981,0.488,1.831,1.465
-0.124,-0.026,0.978,0.916,0.793,1.282
-0.132,-0.031,0.974,0.610,0.916,1.526
-0.069,0.009,0.966,0.793,1.099,1.770
-0.044,0.003,0.963,0.549,1.221,1.587
-0.098,-0.037,0.961,1.038,0.916,1.587
-0.136,-0.041,0.972,0.549,1.831,1.587
-0.138,-0.040,0.973,0.854,1.770,1.709
-0.085,-0.011,0.970,0.916,2.380,1.892
-0.093,-0.013,0.968,0.427,1.953,1.770
-0.094,-0.013,0.971,0.610,2.319,2.136
-0.093,-0.014,0.974,0.916,1.648,2.380
-0.089,-0.016,0.974,0.916,1.404,2.502
-0.089,-0.017,0.973,0.793,0.854,2.197
-0.089,-0.017,0.967,1.038,0.793,2.136
-0.090,-0.016,0.958,0.854,0.977,2.136
-0.095,-0.021,0.951,0.732,1.892,1.709
-0.089,-0.024,0.959,0.549,2.747,1.892
-0.089,-0.022,0.970,0.244,2.930,1.221
-0.087,-0.020,0.972,1.282,2.808,0.427
-0.093,-0.008,0.973,0.854,2.197,0.366
-0.092,-0.006,0.973,1.404,1.648,0.610
-0.092,-0.011,0.967,1.343,1.465,0.916
-0.101,-0.010,0.958,1.526,2.136,1.099
-0.089,-0.012,0.970,0.671,2.075,2.441
-0.087,-0.022,0.962,1.160,2.014,1.770
-0.082,-0.023,0.971,0.793,2.502,1.526
-0.080,-0.020,0.976,0.610,1.953,0.916
-0.070,0.006,0.971,0.732,1.282,0.427
-0.054,0.012,0.961,1.526,0.977,0.793
-0.112,-0.026,0.962,1.648,1.221,1.160
-0.136,-0.034,0.968,2.136,1.709,2.258
-0.086,-0.001,0.972,1.160,1.892,2.380
-0.096,-0.004,0.968,1.526,2.258,2.136
-0.044,0.010,0.963,1.160,2.380,1.953
-0.072,-0.021,0.967,0.977,2.014,1.526
-0.127,-0.045,0.977,1.648,2.075,1.526
-0.119,-0.023,0.973,1.648,1.526,1.526
-0.130,-0.028,0.972,1.343,2.136,1.831
-0.065,0.007,0.970,1.160,2.258,2.075
-0.048,-0.005,0.971,1.221,2.014,1.831
-0.105,-0.039,0.962,2.258,1.465,1.526
-0.094,-0.043,0.960,1.526,1.770,1.587
-0.133,-0.049,0.969,0.732,1.770,1.282
-0.093,-0.007,0.966,0.854,2.197,1.221
-0.042,-0.024,0.980,0.183,1.953,1.526
-0.047,0.019,0.970,0.732,1.526,1.526
-0.067,-0.020,0.961,2.014,1.709,1.770
-0.126,-0.051,0.967,1.099,1.465,2.014
-0.126,-0.023,0.972,0.488,2.075,1.892
-0.088,-0.020,0.973,0.854,2.075,2.136
-0.084,-0.025,0.971,0.671,1.648,1.770
-0.090,-0.026,0.965,1.465,1.404,0.549
-0.089,-0.022,0.970,0.977,1.648,0.671
-0.090,-0.016,0.967,1.099,0.916,0.427
-0.094,-0.007,0.965,1.099,1.648,0.366
-0.090,-0.009,0.970,0.977,1.709,1.282
-0.090,-0.013,0.970,0.916,1.709,1.221
-0.089,-0.016,0.970,1.038,1.526,1.526
-0.091,-0.015,0.964,1.221,1.465,1.465
-0.090,-0.017,0.964,1.038,1.953,1.404
-0.090,-0.020,0.967,0.732,1.953,1.648
-0.137,-0.045,0.971,0.977,2.136,1.892
-0.114,-0.013,0.973,0.854,2.197,1.892
-0.055,0.014,0.967,0.793,2.014,2.136
-0.060,-0.014,0.964,1.526,1.953,2.197
-0.112,-0.050,0.974,1.221,2.014,2.136
-0.095,-0.050,0.966,1.404,1.648,1.526
-0.136,-0.038,0.970,0.854,2.014,1.526
-0.081,0.002,0.970,0.732,2.197,1.709
-0.048,0.007,0.968,1.221,1.770,1.648
-0.089,-0.034,0.974,1.892,1.160,1.526
-0.092,-0.020,0.964,1.465,1.099,1.526
-0.091,-0.016,0.965,1.099,1.526,1.282
-0.093,-0.016,0.966,0.671,1.831,1.282
-0.092,-0.016,0.967,0.793,1.770,1.465
-0.092,-0.018,0.969,0.977,1.953,1.404
-0.091,-0.016,0.970,0.793,2.075,1.709
-0.089,-0.017,0.969,0.793,2.136,1.709
-0.091,-0.017,0.969,0.549,2.136,1.526

-0.088,-0.019,0.974,0.427,1.892,2.075
-0.092,-0.017,0.974,0.610,1.587,2.075
-0.116,-0.049,0.975,0.488,1.282,2.197
-0.129,-0.037,0.970,0.549,0.854,1.709
-0.133,-0.039,0.971,0.793,2.014,2.258
-0.076,0.004,0.964,-0.061,1.404,2.258
-0.053,0.007,0.954,0.732,1.709,0.977
-0.090,-0.031,0.969,0.549,2.563,1.221
-0.133,-0.042,0.986,0.183,1.770,1.404
-0.134,-0.041,0.978,1.587,1.404,1.465
-0.108,-0.012,0.972,1.343,1.038,1.587
-0.054,0.012,0.961,1.160,0.854,1.587
-0.065,-0.014,0.957,1.709,0.916,1.160
-0.056,-0.007,0.956,0.732,1.404,1.038
-0.117,-0.040,0.970,0.366,2.075,0.854
-0.129,-0.027,0.981,0.610,2.197,1.282
-0.076,0.015,0.971,0.610,1.526,1.465
-0.050,0.013,0.962,0.671,1.465,1.831
-0.052,0.012,0.958,0.366,1.465,1.831
-0.095,-0.027,0.965,0.183,1.770,2.136
-0.138,-0.045,0.974,0.610,1.770,2.563
-0.106,-0.010,0.972,0.671,1.648,2.075
-0.114,-0.019,0.968,0.793,1.831,2.014
-0.054,0.012,0.959,0.793,1.953,1.648
-0.058,-0.012,0.963,0.610,2.075,1.099
-0.091,-0.017,0.971,0.549,1.831,0.854
-0.091,-0.016,0.971,0.610,1.709,0.305
-0.095,-0.014,0.968,0.549,1.343,0.305
-0.091,-0.012,0.972,0.549,1.160,0.610
-0.093,-0.011,0.970,0.916,1.038,0.732
-0.094,-0.014,0.966,0.427,1.099,0.366
-0.093,-0.007,0.967,0.000,1.099,0.488
-0.088,-0.006,0.970,0.366,1.221,0.488
-0.094,-0.007,0.966,0.488,0.793,0.610
-0.100,-0.001,0.959,0.854,1.587,1.404
-0.095,-0.002,0.958,0.427,1.343,1.953
-0.099,-0.006,0.956,0.977,2.014,1.831
-0.092,-0.005,0.968,0.610,2.869,2.136
-0.089,-0.005,0.974,0.671,2.441,2.197
-0.097,-0.008,0.967,1.587,1.892,1.892
-0.096,-0.009,0.964,1.343,2.136,2.136
-0.089,-0.003,0.963,1.160,2.563,1.831
-0.047,0.017,0.961,1.038,2.502,1.587
-0.046,0.019,0.967,0.122,2.380,1.831
-0.074,-0.016,0.972,0.732,2.380,1.404
-0.130,-0.043,0.981,0.977,1.587,1.465
-0.116,-0.012,0.975,0.793,1.282,1.221
-0.125,-0.014,0.970,0.366,1.221,1.282
-0.067,0.024,0.959,0.671,1.709,1.160
-0.058,0.012,0.960,0.183,1.892,1.587
-0.116,-0.026,0.970,0.671,2.136,1.892
-0.140,-0.027,0.971,0.854,1.953,2.380
-0.136,-0.038,0.981,0.671,1.404,2.686
-0.092,0.004,0.965,1.343,1.160,2.319
-0.044,0.018,0.960,0.793,1.282,2.014
-0.049,0.026,0.959,0.977,2.014,1.038
-0.073,-0.001,0.965,0.305,2.319,1.282
-0.139,-0.033,0.969,0.366,2.441,2.014
-0.132,-0.038,0.968,0.854,2.563,2.258
-0.131,-0.021,0.966,0.732,2.441,2.686
-0.063,0.021,0.969,0.488,2.197,2.258
-0.087,-0.002,0.968,1.221,2.136,1.709
-0.088,-0.006,0.969,0.610,2.197,1.587
-0.091,-0.008,0.964,0.732,2.197,0.916
-0.094,-0.002,0.972,0.183,2.563,1.465
-0.093,-0.002,0.967,0.977,1.770,1.221
-0.098,-0.005,0.964,0.610,1.953,1.343
-0.089,-0.006,0.973,1.099,2.380,1.465
-0.088,-0.005,0.973,1.160,1.648,1.282
-0.093,-0.007,0.966,1.526,1.221,1.404
-0.095,-0.003,0.964,1.282,1.221,1.404
-0.064,0.024,0.959,1.953,1.709,1.709
-0.045,0.014,0.992,1.038,2.075,1.770
-0.042,0.022,0.965,1.404,2.014,1.709
-0.104,-0.032,0.960,1.465,2.441,1.953
-0.144,-0.036,0.971,0.732,2.319,2.136
-0.091,0.019,0.969,1.404,2.075,2.075
-0.092,0.004,0.978,1.343,2.258,2.502
-0.041,0.031,0.972,0.793,1.831,1.831
-0.103,-0.017,0.957,1.099,1.831,1.892
-0.094,-0.014,0.966,0.488,2.014,2.014
-0.091,-0.005,0.971,1.404,2.014,1.892
-0.087,-0.011,0.971,0.977,1.465,1.892
-0.088,-0.008,0.966,1.099,1.221,1.282
-0.091,-0.006,0.965,0.854,1.526,1.099
-0.091,-0.006,0.965,1.221,1.831,1.343
-0.091,-0.004,0.967,0.977,1.892,1.404
-0.090,-0.004,0.966,0.854,1.831,1.587
-0.124,-0.018,0.970,1.160,1.892,1.465
-0.052,0.029,0.975,1.221,1.953,2.014
-0.051,0.009,0.995,1.526,1.770,1.526
-0.042,0.015,0.966,1.099,1.648,1.526
-0.105,-0.036,0.960,1.343,1.709,1.282
-0.145,-0.031,0.959,1.404,1.831,1.099
-0.141,-0.042,0.969,1.099,1.953,1.465
-0.092,0.006,0.969,1.221,2.136,1.099
-0.039,0.031,0.974,0.732,2.258,1.221
-0.041,0.033,0.972,1.038,1.282,1.404
-0.070,-0.004,0.960,1.099,1.648,0.854
-0.134,-0.043,0.966,0.977,1.953,1.648

-0.122,-0.018,0.976,0.793,1.953,1.953
-0.057,0.029,0.972,1.465,1.343,1.648
-0.045,0.023,0.964,1.282,1.892,1.953
-0.038,0.016,0.968,0.732,2.014,1.404
-0.103,-0.037,0.964,1.343,1.953,1.343
-0.144,-0.042,0.966,1.038,1.770,1.770
-0.091,0.016,0.977,0.916,2.319,1.709
-0.094,0.008,0.980,1.221,1.892,2.258
-0.078,0.004,0.974,0.671,1.526,1.953
-0.086,-0.008,0.965,1.221,1.526,1.709
-0.089,-0.010,0.961,1.160,1.831,1.282
-0.093,-0.010,0.965,0.732,2.197,1.160
-0.092,-0.007,0.970,1.038,2.319,1.282
-0.088,-0.007,0.975,0.916,2.197,1.343
-0.088,-0.007,0.974,1.343,1.770,1.099
-0.089,-0.007,0.966,0.793,1.343,1.221
-0.091,-0.004,0.969,0.854,1.526,1.099
-0.089,-0.008,0.966,1.282,1.770,0.977
-0.090,-0.009,0.971,0.671,1.587,1.099
-0.089,-0.006,0.969,1.221,1.404,1.160
-0.091,-0.007,0.969,0.854,1.404,1.099
-0.082,-0.020,0.940,0.427,1.282,1.160
-0.125,-0.004,0.971,-0.366,1.770,1.892
-0.120,-0.017,0.987,5.493,2.686,1.892
-0.057,0.031,0.974,0.305,1.099,1.526
-0.054,0.022,0.970,0.610,1.099,1.953
-0.082,-0.009,0.964,1.282,1.465,2.319
-0.083,-0.015,0.964,0.427,1.404,1.404
-0.088,-0.012,0.964,1.465,2.197,1.099
-0.090,-0.008,0.939,0.488,1.648,1.038
-0.102,-0.002,0.965,1.343,2.014,0.671
-0.093,-0.003,0.977,1.160,2.380,1.587
-0.088,-0.007,0.979,1.038,2.258,1.404
-0.085,-0.009,0.971,1.404,0.854,1.587
-0.123,-0.026,0.961,1.282,0.732,1.526
-0.055,0.023,0.966,1.282,1.404,0.977
-0.045,0.009,0.963,0.671,1.526,1.160
-0.045,0.023,0.966,1.282,1.587,0.610
-0.112,-0.026,0.963,1.099,1.953,0.977
-0.100,-0.002,0.973,1.099,1.831,1.831
-0.096,-0.000,0.967,1.465,1.587,2.258
-0.087,-0.013,0.964,0.916,1.953,2.502
-0.090,-0.011,0.968,0.732,2.075,1.770
-0.088,-0.010,0.971,0.793,1.709,1.770
-0.091,-0.008,0.968,1.099,1.709,1.587
-0.128,-0.033,0.969,1.099,1.343,1.160
-0.130,-0.017,0.969,1.160,2.014,1.831
-0.058,0.033,0.975,0.549,1.709,2.197
-0.045,0.016,0.968,1.160,1.587,2.014
-0.041,0.018,0.967,0.671,1.465,1.587
-0.096,-0.016,0.957,1.038,1.221,1.160
-0.090,-0.009,0.961,0.793,1.648,1.099
-0.092,-0.005,0.968,0.793,1.831,0.916
-0.090,-0.003,0.971,0.549,1.831,1.465
-0.091,-0.002,0.969,0.732,1.770,1.526
-0.093,-0.003,0.972,0.977,1.648,1.770
-0.099,-0.011,0.972,1.038,1.587,2.075
-0.117,-0.021,0.969,1.038,1.831,2.258
-0.055,0.026,0.969,0.854,2.136,1.282
-0.064,0.028,0.970,1.282,1.831,1.709
-0.051,0.016,0.962,1.343,1.587,1.282
-0.105,-0.019,0.959,1.038,2.441,1.221
-0.085,-0.006,0.976,0.916,2.747,1.465
-0.090,-0.003,0.975,0.977,1.709,1.160
-0.098,-0.003,0.966,1.282,0.977,1.343
-0.095,-0.002,0.962,1.221,1.648,1.648
-0.089,-0.004,0.968,0.854,1.953,1.953
-0.087,-0.008,0.967,0.977,1.709,1.709
-0.094,-0.005,0.965,0.854,1.831,1.587
-0.095,-0.002,0.970,1.099,2.258,1.526
-0.094,-0.001,0.966,0.854,1.953,2.075
-0.090,-0.006,0.973,1.099,2.258,2.197
-0.090,-0.007,0.968,0.916,1.770,2.014
-0.095,-0.008,0.965,0.977,1.709,1.709
-0.093,-0.008,0.970,0.916,2.075,1.892
-0.090,-0.009,0.974,1.038,2.136,1.526
-0.089,-0.009,0.970,1.282,1.526,1.221
-0.093,-0.006,0.965,1.282,1.587,1.282
-0.090,-0.008,0.965,0.916,1.709,1.221
-0.090,-0.006,0.970,0.488,1.648,0.671
-0.066,0.010,0.964,0.977,1.587,0.671
-0.052,0.007,0.964,1.221,1.709,0.671
-0.123,-0.038,0.964,0.366,1.892,0.427
-0.113,-0.035,0.971,0.793,1.953,0.732
-0.143,-0.036,0.974,1.160,1.465,0.854
-0.079,0.019,0.979,0.854,0.732,0.854
-0.041,0.041,0.973,1.709,0.610,0.854
-0.040,0.044,0.961,2.136,1.343,1.160
-0.084,-0.003,0.956,1.343,1.831,1.343
-0.148,-0.037,0.956,0.732,2.747,2.136
-0.119,-0.010,0.963,0.732,2.563,3.113
-0.050,0.031,0.938,0.610,3.052,2.625
-0.046,0.025,0.983,0.732,2.991,2.930
-0.041,0.008,0.980,1.038,2.319,2.075
-0.110,-0.044,0.969,1.648,1.282,1.770
-0.145,-0.039,0.958,2.075,0.916,1.099
-0.080,0.017,0.957,1.404,2.075,1.038
-0.085,0.017,0.971,0.793,2.197,1.404
-0.081,0.001,0.977,1.404,2.319,1.282
-0.091,-0.004,0.974,0.916,1.953,1.587

-0.093,-0.000,0.974,1.343,1.648,1.709
-0.091,-0.006,0.965,1.221,1.587,2.075
-0.087,-0.006,0.966,1.160,1.587,1.892
-0.090,-0.010,0.963,1.160,1.770,1.770
-0.097,-0.007,0.964,0.916,1.892,1.831
-0.137,-0.034,0.969,0.671,2.197,2.136
-0.070,0.020,0.974,0.732,1.770,1.892
-0.043,0.024,0.972,1.526,1.648,1.221
-0.100,-0.025,0.967,1.221,1.892,1.831
-0.089,-0.018,0.968,1.221,1.709,1.709
-0.145,-0.048,0.961,1.282,1.709,1.831
-0.105,-0.010,0.961,1.099,2.197,1.709
-0.042,0.031,0.969,1.221,2.319,1.526
-0.045,0.030,0.974,1.038,2.319,1.343
-0.057,0.006,0.976,1.099,2.014,1.465
-0.127,-0.039,0.970,0.732,1.648,1.343
-0.136,-0.031,0.961,1.282,1.709,1.404
-0.127,-0.036,0.964,0.854,1.831,1.404
-0.072,0.017,0.972,1.160,1.892,1.526
-0.037,0.022,0.972,0.977,1.465,1.099
-0.095,-0.022,0.970,0.916,1.831,0.977
-0.083,-0.011,0.971,0.916,1.282,1.465
-0.100,-0.006,0.960,0.977,1.465,0.916
-0.094,-0.005,0.969,0.671,2.197,1.282
-0.088,-0.004,0.974,0.916,2.319,1.465
-0.086,-0.006,0.976,0.916,1.343,1.709
-0.093,-0.006,0.962,1.465,1.343,1.648
-0.094,-0.006,0.965,1.099,1.831,1.770
-0.069,0.004,0.967,1.343,2.014,1.770
-0.039,0.023,0.972,0.549,2.319,1.526
-0.103,-0.026,0.976,0.732,2.136,1.648
-0.143,-0.037,0.972,0.977,1.892,1.770
-0.096,0.006,0.970,0.671,1.038,1.648
-0.102,-0.005,0.961,1.282,1.221,2.075
-0.042,0.029,0.966,0.977,1.465,1.404
-0.072,-0.001,0.969,0.916,2.014,1.404
-0.140,-0.046,0.969,0.671,2.197,1.343
-0.132,-0.040,0.972,1.099,1.831,1.404
-0.137,-0.026,0.964,1.221,1.404,1.221
-0.061,0.026,0.967,1.221,1.587,1.404
-0.045,0.022,0.971,0.671,1.709,1.770
-0.039,0.029,0.979,0.671,1.465,1.465
-0.096,-0.026,0.971,1.282,0.977,1.587
-0.149,-0.042,0.960,0.916,1.160,1.770
-0.101,0.003,0.958,1.038,1.404,1.770
-0.108,-0.004,0.956,1.160,1.831,1.892
-0.094,-0.005,0.966,0.916,2.075,1.770
-0.089,-0.008,0.971,0.977,2.502,1.526
-0.089,-0.011,0.974,1.038,1.709,0.916
-0.095,-0.004,0.966,1.831,1.892,0.793
-0.093,-0.001,0.966,0.793,1.770,1.038
-0.097,-0.002,0.962,0.977,1.465,0.732
-0.092,-0.006,0.971,0.793,2.441,1.099
-0.090,-0.001,0.974,0.854,2.075,1.099
-0.093,-0.000,0.969,0.916,1.709,1.343
-0.098,-0.000,0.965,1.038,1.404,1.709
-0.096,-0.003,0.964,1.221,1.587,2.075
-0.090,-0.008,0.962,1.282,1.648,1.953
-0.088,-0.011,0.964,0.732,2.014,1.526
-0.093,-0.002,0.968,0.854,2.197,1.526
-0.096,0.004,0.971,1.099,2.380,1.465
-0.098,-0.000,0.969,0.916,2.075,2.380
-0.091,-0.007,0.973,1.343,2.014,2.319
-0.092,-0.010,0.968,1.282,1.709,2.014
-0.094,-0.010,0.964,1.282,1.953,1.831
-0.111,-0.023,0.971,0.732,2.197,1.526
-0.093,-0.021,0.977,1.221,2.197,1.404
-0.144,-0.046,0.970,1.221,1.465,1.648
-0.104,-0.001,0.964,1.404,1.404,1.404
-0.105,-0.006,0.962,0.671,1.465,1.770
-0.094,-0.000,0.962,0.732,1.831,1.282
-0.094,-0.000,0.964,0.793,2.075,1.526
-0.093,-0.003,0.966,0.916,1.953,1.709
-0.091,-0.006,0.966,1.526,2.319,1.892
-0.095,-0.006,0.970,1.038,2.502,1.953
-0.090,-0.006,0.976,1.404,2.136,1.892
-0.037,0.022,0.977,1.282,1.465,1.892
-0.102,-0.025,0.974,1.282,1.526,1.282
-0.089,-0.016,0.969,1.221,0.610,1.953
-0.152,-0.049,0.952,1.221,0.977,1.282
-0.109,-0.008,0.953,1.160,2.625,1.404
-0.087,-0.008,0.974,0.549,2.686,1.282
-0.088,-0.007,0.981,0.916,2.380,0.671
-0.094,-0.004,0.971,1.648,1.526,1.038
-0.098,0.002,0.964,1.465,1.648,1.404
-0.094,-0.003,0.965,0.977,2.014,1.526
-0.087,-0.007,0.971,1.526,1.831,1.526
-0.071,0.019,0.966,1.770,1.587,1.465
-0.043,0.030,0.967,2.563,1.892,1.831
-0.040,0.025,0.963,2.441,2.136,1.892
-0.085,-0.022,0.966,1.953,2.625,1.404
-0.145,-0.050,0.965,1.831,2.625,1.282
-0.097,-0.008,0.976,0.977,2.563,1.282
-0.094,-0.005,0.981,0.610,2.197,1.709
-0.096,-0.005,0.977,0.610,1.282,2.014
-0.090,-0.009,0.966,0.916,1.038,2.014
-0.085,-0.012,0.965,0.610,1.160,1.831
-0.089,-0.009,0.959,1.099,1.404,1.465
-0.088,-0.010,0.960,1.038,1.892,1.709
-0.090,-0.007,0.965,0.854,2.136,1.648

-0.094,-0.004,0.969,0.977,2.441,1.709
-0.091,-0.005,0.975,0.793,2.441,2.258
-0.090,-0.008,0.975,1.099,1.892,2.319
-0.095,-0.009,0.971,1.282,1.648,2.380
-0.087,-0.013,0.970,1.099,1.587,2.014
-0.088,-0.018,0.961,1.465,1.465,0.916
-0.093,-0.014,0.963,0.244,2.197,0.916
-0.091,-0.007,0.972,0.854,1.709,0.671
-0.095,-0.007,0.970,1.160,1.892,0.732
-0.090,-0.006,0.976,1.038,1.953,1.160
-0.088,-0.003,0.975,1.038,1.099,1.221
-0.091,-0.004,0.969,1.526,0.549,1.526
-0.094,-0.004,0.964,1.343,0.610,1.831
-0.103,-0.010,0.916,-2.258,1.587,1.709
-0.093,-0.007,0.962,3.418,3.845,1.587
-0.088,-0.017,0.980,3.784,3.357,1.465
-0.098,-0.001,0.982,-0.244,1.892,2.014
-0.099,-0.008,0.970,2.441,1.587,2.136
-0.092,-0.015,0.966,0.061,2.197,2.258
-0.082,-0.016,0.971,1.343,1.648,2.014
-0.086,-0.018,0.965,1.404,1.770,0.854
-0.092,-0.014,0.969,0.549,1.465,0.488
-0.099,-0.003,0.967,1.160,1.831,0.427
-0.095,-0.001,0.973,0.732,2.014,0.977
-0.092,-0.004,0.974,1.221,1.587,1.282
-0.087,-0.011,0.971,0.977,1.221,1.648
-0.140,-0.047,0.960,0.610,1.099,1.404
-0.085,0.003,0.960,0.732,1.648,1.160
-0.037,0.030,0.968,0.793,1.953,0.977
-0.086,-0.003,0.970,0.732,2.014,1.038
-0.091,0.001,0.971,0.977,2.075,1.648
-0.089,-0.008,0.969,0.732,2.197,2.258
-0.090,-0.010,0.974,0.549,2.136,2.380
-0.140,-0.034,0.965,0.977,1.526,2.380
-0.055,0.012,0.963,0.854,1.160,1.587
-0.051,0.019,0.967,1.038,2.014,0.854
-0.117,-0.031,0.970,0.549,2.258,1.892
-0.151,-0.046,0.955,1.099,1.953,0.916
-0.092,-0.007,0.974,0.732,2.563,1.160
-0.086,-0.008,0.975,0.977,1.953,0.671
-0.050,0.021,0.971,0.916,1.282,0.366
-0.081,-0.005,0.968,1.038,0.793,0.977
-0.146,-0.047,0.958,1.343,1.648,0.854
-0.139,-0.044,0.960,1.099,1.892,1.038
-0.125,-0.024,0.963,1.099,2.075,1.343
-0.080,0.004,0.975,0.732,2.197,1.343
-0.090,-0.000,0.973,0.916,2.136,1.038
-0.124,-0.003,0.965,0.793,1.831,1.587
-0.110,-0.034,0.967,1.038,1.953,1.892
-0.147,-0.043,0.964,0.610,1.892,2.075
-0.088,0.012,0.967,0.488,1.770,2.075
-0.038,0.033,0.973,0.549,2.197,1.770
-0.083,-0.014,0.972,0.488,1.770,1.892
-0.094,-0.011,0.968,0.671,1.160,1.709
-0.093,-0.009,0.964,0.610,1.038,1.343
-0.116,-0.023,0.961,0.916,1.038,1.160
-0.043,0.029,0.971,0.122,1.221,0.732
-0.046,0.015,0.966,0.549,0.916,0.305
-0.046,0.028,0.965,0.488,1.465,-0.122
-0.121,-0.020,0.962,0.610,1.648,0.366
-0.109,0.004,0.957,0.610,1.953,1.099
-0.096,0.005,0.966,0.427,2.686,1.892
-0.092,-0.004,0.970,0.916,2.441,1.892
-0.038,0.035,0.977,1.038,2.563,2.502
-0.078,-0.013,0.963,1.038,1.343,2.136
-0.150,-0.047,0.958,0.671,1.587,1.343
-0.118,-0.007,0.965,0.854,2.380,1.648
-0.040,0.036,0.975,0.305,2.380,1.831
-0.095,0.002,0.971,1.282,1.587,1.648
-0.096,-0.001,0.962,1.343,1.526,2.380
-0.121,-0.031,0.968,0.916,1.709,2.014
-0.137,-0.035,0.962,1.892,1.953,2.258
-0.142,-0.039,0.964,0.854,2.014,2.014
-0.083,0.017,0.969,1.465,2.319,1.587
-0.036,0.035,0.977,0.977,2.502,1.343
-0.098,-0.002,0.970,1.099,2.136,1.343
-0.089,-0.002,0.971,1.221,1.648,1.831
-0.103,-0.004,0.965,1.282,1.709,2.014
-0.124,-0.010,0.965,0.916,1.892,2.869
-0.047,0.031,0.970,1.038,1.892,2.869
-0.045,0.007,0.969,0.854,2.075,2.441
-0.122,-0.042,0.966,1.160,1.587,1.709
-0.100,-0.019,0.958,1.099,1.770,1.587
-0.096,-0.006,0.964,0.732,2.136,1.404
-0.093,-0.004,0.966,1.038,1.953,1.404
-0.037,0.028,0.971,0.671,1.953,1.587
-0.039,0.036,0.971,1.160,1.648,1.343
-0.081,-0.012,0.966,0.916,1.831,1.587
-0.140,-0.044,0.969,0.366,1.526,1.709
-0.115,-0.008,0.966,1.587,1.526,1.770
-0.096,-0.003,0.965,0.427,1.648,1.343
-0.091,-0.005,0.966,1.160,1.587,0.854
-0.085,0.002,0.967,1.404,2.380,1.160
-0.042,0.025,0.971,0.977,1.709,2.197
-0.114,-0.030,0.959,1.465,2.014,1.465
-0.144,-0.035,0.964,0.854,2.563,1.770
-0.079,0.016,0.974,0.671,2.319,1.953
-0.086,-0.002,0.978,1.404,1.709,1.770
-0.089,-0.004,0.969,1.526,1.221,1.587
-0.095,-0.002,0.961,1.404,1.343,0.977

-0.138,-0.040,0.961,1.892,2.197,1.465
-0.135,-0.045,0.968,1.038,2.014,1.892
-0.124,-0.016,0.969,1.099,2.136,1.648
-0.049,0.036,0.975,1.160,2.014,1.526
-0.087,0.009,0.972,0.854,1.526,1.587
-0.086,-0.001,0.968,1.160,1.648,1.892
-0.090,-0.001,0.966,0.671,1.465,1.587
-0.102,-0.021,0.960,0.854,2.014,1.587
-0.150,-0.039,0.965,0.061,2.502,2.014
-0.094,0.004,0.972,0.671,2.319,2.197
-0.036,0.036,0.976,0.793,1.953,1.831
-0.072,-0.004,0.972,0.916,1.709,1.404
-0.094,-0.002,0.958,0.916,1.709,1.282
-0.092,-0.001,0.965,0.854,1.953,1.465
-0.126,-0.018,0.967,1.160,2.258,1.099
-0.054,0.026,0.971,0.854,1.953,1.648
-0.061,0.023,0.965,1.404,1.709,1.404
-0.043,0.028,0.970,0.305,1.404,0.854
-0.106,-0.021,0.972,1.038,2.075,0.732
-0.099,-0.002,0.971,1.038,2.014,0.854
-0.090,-0.008,0.970,1.038,1.587,0.610
-0.087,-0.003,0.967,1.221,2.014,1.099
-0.107,-0.005,0.968,0.854,1.587,1.282
-0.049,0.036,0.967,1.099,1.526,0.916
-0.059,0.015,0.971,0.916,2.197,0.732
-0.128,-0.039,0.975,0.427,2.136,0.977
-0.095,-0.008,0.968,1.343,1.038,1.221
-0.089,-0.004,0.966,1.160,1.160,1.038
-0.092,-0.000,0.964,0.916,1.465,0.916
-0.076,0.020,0.965,1.221,2.136,1.648
-0.038,0.032,0.969,0.610,2.197,1.709
-0.091,-0.016,0.971,0.732,2.197,1.587
-0.145,-0.038,0.975,1.038,1.892,2.014
-0.112,-0.024,0.962,1.282,1.282,1.831
-0.091,-0.004,0.963,1.038,1.526,1.892
-0.094,-0.004,0.962,0.793,2.136,1.648
-0.093,-0.004,0.970,0.732,2.258,1.648
-0.090,-0.002,0.975,1.099,2.136,1.587
-0.090,-0.004,0.974,1.282,1.587,1.465
-0.096,-0.001,0.969,1.099,1.099,1.404
-0.094,-0.002,0.962,1.343,1.099,1.404
-0.091,-0.002,0.966,1.038,1.831,1.282
-0.089,-0.007,0.964,1.343,2.136,1.221
-0.085,-0.006,0.971,0.732,1.892,1.160
-0.089,-0.003,0.968,0.977,1.709,0.916
-0.089,-0.004,0.970,0.916,1.587,0.671
-0.090,-0.003,0.975,0.671,1.526,0.854
-0.091,-0.000,0.978,0.793,1.160,0.854
-0.094,0.001,0.973,1.404,0.488,1.038
-0.107,-0.000,0.929,-0.122,1.282,1.709
-0.090,0.002,0.968,0.183,3.723,2.136
-0.084,0.000,0.988,3.906,3.296,1.221
-0.092,-0.003,0.972,0.916,1.648,1.526
-0.095,0.000,0.977,0.916,1.526,1.831
-0.089,-0.004,0.965,1.831,1.587,1.587
-0.114,-0.010,0.960,1.038,1.465,2.014
-0.047,0.031,0.963,1.465,1.587,2.075
-0.055,0.004,0.966,0.854,2.075,1.648
-0.123,-0.046,0.964,1.221,2.014,1.404
-0.123,-0.038,0.964,0.977,1.892,0.977
-0.143,-0.025,0.971,1.282,1.770,1.770
-0.071,0.023,0.973,1.343,1.465,2.075
-0.081,0.020,0.973,0.916,1.770,1.953
-0.036,0.034,0.963,1.160,1.770,1.831
-0.089,-0.013,0.959,0.366,2.258,1.404
-0.151,-0.040,0.966,0.427,2.563,1.953
-0.141,-0.044,0.977,0.793,2.136,2.502
-0.117,-0.010,0.977,1.343,1.587,2.441
-0.049,0.032,0.969,1.343,1.221,2.380
-0.080,0.004,0.964,0.671,1.526,2.136
-0.090,-0.003,0.965,0.549,1.892,1.404
-0.090,-0.003,0.965,0.732,1.831,1.282
-0.090,-0.000,0.963,1.038,2.014,1.160
-0.097,0.004,0.967,0.793,2.319,1.404
-0.091,-0.001,0.971,1.160,2.686,1.770
-0.085,-0.004,0.977,1.038,2.136,1.770
-0.094,-0.003,0.966,1.831,1.587,1.770
-0.090,-0.002,0.967,0.916,1.648,1.953
-0.093,-0.001,0.961,1.038,1.221,1.160
-0.093,-0.031,0.966,0.977,2.441,1.526
-0.086,-0.000,0.975,0.793,2.625,1.282
-0.091,0.000,0.973,1.099,2.136,1.221
-0.094,-0.000,0.966,1.526,1.587,1.892
-0.093,-0.002,0.968,1.465,2.014,1.770
-0.089,-0.005,0.966,1.709,2.014,1.770
-0.087,-0.008,0.968,1.221,2.258,1.587
-0.093,-0.000,0.972,1.099,2.136,1.526
-0.092,-0.001,0.971,1.526,2.075,1.648
-0.092,-0.001,0.969,0.977,1.648,1.709
-0.087,-0.002,0.967,1.526,1.831,1.892
-0.090,-0.001,0.963,0.732,1.709,1.648
-0.095,-0.001,0.962,1.221,2.441,1.831
-0.093,-0.002,0.970,0.916,2.441,2.319
-0.089,-0.004,0.973,1.221,2.197,2.136
-0.090,-0.005,0.972,1.648,2.075,1.648
-0.085,-0.006,0.969,1.099,1.465,1.892
-0.089,-0.007,0.962,1.343,1.831,1.404
-0.090,-0.003,0.967,0.916,2.014,1.343
-0.089,-0.003,0.966,1.099,2.258,1.526
-0.088,-0.005,0.974,0.977,2.075,1.587

-0.090,-0.005,0.970,1.587,1.770,1.709
-0.090,-0.007,0.967,1.099,1.892,1.648
-0.087,-0.004,0.969,1.404,2.075,1.648
-0.085,-0.005,0.973,1.282,1.709,1.465
-0.087,-0.007,0.968,1.404,1.465,1.099
-0.090,-0.013,0.931,-0.427,1.160,1.648
-0.097,0.002,0.965,-2.441,1.953,1.953
-0.086,-0.007,0.977,3.845,3.906,1.892
-0.077,-0.006,0.988,2.136,2.258,1.160
-0.096,-0.001,0.969,1.038,0.488,1.221
-0.094,-0.005,0.955,2.258,1.099,1.709
-0.055,0.018,0.955,1.404,2.014,1.709
-0.050,0.029,0.969,1.282,2.625,1.770
-0.071,-0.021,0.968,1.221,2.197,1.831
-0.096,-0.021,0.971,0.916,2.075,1.648
-0.089,-0.006,0.974,1.160,2.136,1.404
-0.087,-0.005,0.975,1.038,1.526,1.099
-0.094,-0.004,0.967,1.038,1.648,1.404
-0.090,-0.007,0.969,0.793,1.648,1.587
-0.116,-0.038,0.965,0.977,1.892,1.282
-0.105,-0.032,0.970,0.488,1.526,1.282
-0.121,-0.026,0.969,0.854,1.282,1.343
-0.094,-0.003,0.969,0.793,1.099,1.038
-0.094,-0.001,0.963,1.038,1.465,1.282
-0.086,-0.002,0.965,0.793,1.648,1.587
-0.085,-0.005,0.966,0.854,1.587,1.465
-0.133,-0.044,0.965,0.916,1.953,0.916
-0.131,-0.042,0.966,0.549,1.831,1.160
-0.130,-0.015,0.967,0.854,1.831,1.160
-0.091,0.003,0.974,0.671,1.770,1.465
-0.091,-0.000,0.972,0.916,1.648,1.709
-0.091,-0.005,0.970,1.099,1.770,1.770
-0.087,-0.007,0.967,1.038,1.587,2.014
-0.125,-0.037,0.970,1.282,1.465,1.831
-0.146,-0.045,0.958,1.038,1.831,0.549
-0.100,0.005,0.965,0.793,2.075,1.343
-0.043,0.039,0.969,0.916,1.587,0.977
-0.073,0.036,0.971,1.099,2.441,1.099
-0.054,0.007,0.980,0.671,2.197,1.343
-0.124,-0.040,0.970,1.770,1.526,1.099
-0.133,-0.023,0.964,1.465,1.343,1.099
-0.138,-0.028,0.961,1.465,1.648,1.770
-0.063,0.025,0.972,0.916,1.892,1.587
-0.037,0.023,0.971,1.404,1.892,1.160
-0.096,-0.026,0.968,0.732,1.709,1.404
-0.093,-0.016,0.968,1.282,1.648,0.916
-0.146,-0.040,0.963,1.038,1.465,1.709
-0.103,0.005,0.969,0.549,1.709,2.075
-0.037,0.034,0.968,1.099,1.831,1.831
-0.066,-0.002,0.967,0.732,1.709,1.709
-0.060,0.006,0.969,1.099,1.709,1.221
-0.131,-0.038,0.968,1.282,1.526,1.526
-0.138,-0.019,0.963,1.099,1.404,1.831
-0.062,0.032,0.967,0.977,1.831,2.014
-0.065,0.022,0.967,0.549,1.770,2.563
-0.032,0.023,0.970,0.488,1.892,2.136
-0.095,-0.030,0.962,1.404,1.953,1.343
-0.147,-0.041,0.962,1.221,1.831,1.221
-0.147,-0.040,0.964,1.465,2.014,1.709
-0.104,0.006,0.977,-3.418,3.174,1.770
-0.033,0.028,0.965,2.625,2.930,0.732
-0.049,0.044,0.986,0.000,2.747,1.526
-0.057,0.014,0.982,1.587,2.258,2.136
-0.128,-0.039,0.972,1.770,1.404,2.014
-0.134,-0.021,0.979,1.648,1.282,2.808
-0.062,0.025,0.966,2.258,0.610,2.441
-0.069,0.014,0.955,1.343,1.465,1.831
-0.030,0.027,0.965,0.000,2.625,1.160
-0.082,-0.025,0.967,0.793,2.563,1.099
-0.097,-0.008,0.973,0.671,2.014,1.221
-0.093,-0.001,0.970,1.038,1.526,1.770
-0.091,-0.001,0.965,1.343,1.465,1.953
-0.093,-0.004,0.962,1.282,1.953,2.502
-0.094,-0.004,0.961,1.282,2.136,2.441
-0.091,-0.003,0.968,1.038,2.930,2.502
-0.089,-0.007,0.971,1.099,2.197,2.625
-0.087,-0.007,0.975,0.732,2.441,2.441
-0.084,-0.009,0.976,0.793,1.770,2.197
-0.089,-0.011,0.968,1.099,1.770,1.648
-0.092,-0.009,0.964,0.977,1.404,1.343
-0.090,-0.005,0.965,0.671,1.770,1.160
-0.089,-0.002,0.970,1.160,1.770,1.038
-0.087,-0.005,0.970,1.587,1.648,1.282
-0.087,-0.005,0.969,0.793,1.587,0.916
-0.091,-0.003,0.966,1.465,1.892,0.732
-0.089,-0.001,0.969,0.793,1.892,1.282
-0.088,-0.002,0.966,0.977,1.648,1.038
-0.090,-0.004,0.963,0.671,1.404,1.221
-0.090,-0.007,0.967,0.427,1.648,1.404
-0.088,-0.005,0.974,0.732,1.831,1.160
-0.082,-0.002,0.979,0.671,1.404,0.977
-0.087,-0.001,0.973,1.160,0.549,0.549
-0.090,-0.001,0.962,1.465,0.671,0.732
-0.095,0.000,0.959,0.854,0.977,0.793
-0.089,0.000,0.960,0.916,1.587,0.793
-0.093,0.002,0.965,0.671,2.014,0.366
-0.091,0.006,0.970,1.282,2.380,1.831
-0.093,0.005,0.968,1.221,1.770,1.953
-0.096,0.002,0.968,1.221,2.136,2.319
-0.087,-0.005,0.969,1.709,2.380,2.686

-0.083,-0.010,0.972,0.916,2.258,2.258
-0.090,-0.011,0.964,1.892,1.526,1.648
-0.092,-0.007,0.958,1.404,1.953,1.221
-0.100,-0.003,0.956,-2.075,3.540,1.160
-0.086,-0.010,0.986,2.869,4.272,0.793
-0.082,-0.003,0.990,2.808,2.380,0.977
-0.098,0.002,0.982,1.038,0.732,1.282
-0.093,0.001,0.967,2.869,0.610,1.404
-0.089,-0.007,0.960,1.526,1.221,2.014
-0.081,-0.012,0.961,1.343,1.465,2.075
-0.080,-0.013,0.960,0.916,2.197,1.404
-0.086,-0.008,0.971,0.916,2.014,0.854
-0.093,-0.002,0.972,0.977,1.892,0.854
-0.092,0.000,0.970,1.282,1.770,1.343
-0.086,-0.003,0.970,0.977,1.831,1.892
-0.087,-0.008,0.970,0.916,1.648,2.258
-0.086,-0.007,0.969,0.549,1.770,2.075
-0.069,0.019,0.970,0.183,1.587,1.831
-0.038,0.028,0.968,0.793,1.953,1.709
-0.091,-0.024,0.965,0.488,1.831,1.831
-0.082,-0.017,0.966,0.854,1.831,1.465
-0.139,-0.045,0.968,0.671,1.770,2.075
-0.108,-0.010,0.969,0.793,1.404,1.892
-0.043,0.033,0.970,0.977,1.465,1.648
-0.046,0.032,0.970,0.549,1.648,1.526
-0.052,0.013,0.971,0.732,1.709,1.160
-0.120,-0.037,0.965,0.793,1.526,1.526
-0.137,-0.033,0.966,0.671,1.526,1.648
-0.146,-0.036,0.957,0.854,1.709,1.038
-0.077,0.018,0.971,0.305,2.136,1.648
-0.036,0.035,0.970,0.916,1.099,1.465
-0.092,-0.018,0.957,0.793,1.831,0.977
-0.075,-0.011,0.970,0.305,2.319,0.916
-0.135,-0.042,0.972,0.854,1.831,0.671
-0.113,-0.004,0.965,1.343,1.160,0.977
-0.126,-0.008,0.965,0.916,1.892,1.465
-0.048,0.036,0.973,0.977,2.197,1.465
-0.046,0.012,0.970,1.099,1.709,1.526
-0.119,-0.036,0.964,0.916,1.282,1.587
-0.141,-0.026,0.962,1.221,2.014,1.770
-0.069,0.028,0.970,0.916,2.380,2.075
-0.076,0.018,0.975,0.977,1.953,2.380
-0.032,0.031,0.969,1.099,1.709,2.014
-0.089,-0.020,0.960,0.610,1.709,1.404
-0.146,-0.042,0.963,0.671,1.892,1.831
-0.106,0.001,0.972,0.854,2.319,2.197
-0.114,-0.004,0.978,1.282,1.587,1.953
-0.042,0.036,0.971,1.465,1.526,2.014
-0.050,0.008,0.963,0.793,1.404,1.709
-0.120,-0.038,0.959,1.038,1.526,1.587
-0.134,-0.025,0.966,0.427,2.014,1.221
-0.137,-0.030,0.969,0.977,1.770,1.526
-0.075,0.024,0.975,0.977,2.014,1.587
-0.087,0.002,0.967,1.343,2.014,1.587
-0.089,-0.001,0.968,1.038,2.197,2.014
-0.086,-0.002,0.968,1.404,1.892,1.953
-0.090,-0.003,0.966,0.793,1.831,1.831
-0.091,-0.002,0.966,1.160,1.953,1.892
-0.085,-0.003,0.970,0.977,1.953,1.770
-0.085,-0.009,0.969,1.221,1.648,0.977
-0.092,-0.002,0.967,1.160,2.014,1.404
-0.089,-0.001,0.969,0.916,1.831,1.404
-0.095,-0.001,0.961,0.977,1.526,1.343
-0.090,-0.002,0.968,0.916,2.197,1.770
-0.085,-0.001,0.971,1.160,2.319,1.648
-0.087,-0.002,0.965,1.404,2.502,1.587
-0.087,-0.004,0.971,0.977,2.014,1.770
-0.088,-0.005,0.968,1.587,2.014,1.587
-0.086,-0.006,0.966,1.160,1.709,1.465
-0.088,-0.008,0.968,1.221,1.770,1.526
-0.090,-0.005,0.968,0.977,1.892,1.465
-0.088,-0.002,0.969,1.099,2.319,1.831
-0.087,-0.004,0.969,1.038,1.770,1.648
-0.086,-0.004,0.970,1.343,1.892,1.648
-0.088,-0.006,0.964,1.587,1.648,1.648
-0.091,-0.004,0.961,0.854,2.136,1.404
-0.088,-0.002,0.969,0.610,2.502,1.770
-0.087,-0.002,0.978,0.854,2.563,1.709
-0.084,-0.005,0.976,1.282,1.648,1.770
-0.088,-0.006,0.971,0.793,1.404,1.587
-0.088,-0.008,0.967,1.099,1.160,1.404
-0.086,-0.008,0.965,1.221,1.648,1.282
-0.088,-0.003,0.966,0.854,1.465,0.916
-0.090,-0.001,0.965,1.648,1.526,1.038
-0.090,0.002,0.964,0.977,1.831,1.099
-0.089,0.000,0.966,1.038,2.136,1.526
-0.085,-0.003,0.969,1.038,2.136,1.831
-0.083,-0.005,0.973,0.916,2.075,1.770
-0.084,-0.006,0.968,1.099,1.343,1.770
-0.091,-0.007,0.961,1.221,1.404,1.587
-0.099,0.009,0.956,-3.357,2.747,2.075
-0.078,-0.002,0.979,1.892,3.357,2.136
-0.081,-0.010,0.984,3.662,2.136,0.122
-0.095,0.001,0.977,0.183,0.610,1.221
-0.098,-0.001,0.957,2.197,0.488,1.160
-0.145,-0.036,0.964,0.671,2.319,1.770
-0.098,-0.013,0.972,1.099,2.258,2.563
-0.032,0.026,0.975,0.916,1.709,1.465
-0.073,-0.003,0.964,1.831,1.465,0.610
-0.092,-0.002,0.968,0.549,1.831,0.488

-0.092,-0.000,0.973,1.343,2.075,0.732
-0.088,-0.003,0.971,0.916,1.831,1.404
-0.088,-0.005,0.976,0.366,1.465,1.648
-0.084,-0.004,0.974,1.282,1.465,1.648
-0.086,-0.009,0.968,0.549,0.916,1.404
-0.090,-0.005,0.963,0.916,1.282,0.977
-0.088,-0.006,0.962,0.854,1.587,1.099
-0.094,-0.002,0.962,0.488,1.770,0.916
-0.103,-0.004,0.969,0.366,2.136,1.160
-0.129,-0.039,0.974,0.549,2.258,2.136
-0.124,-0.022,0.974,0.793,1.587,1.831
-0.078,0.007,0.970,1.038,0.854,1.587
-0.086,-0.003,0.962,0.977,1.099,1.648
-0.090,-0.005,0.965,0.366,1.160,1.160
-0.091,-0.001,0.963,1.038,1.648,1.160
-0.090,-0.001,0.966,0.854,1.892,1.282
-0.088,-0.001,0.968,1.099,1.953,1.282
-0.088,-0.001,0.974,0.549,1.892,1.526
-0.088,-0.000,0.974,1.099,1.343,1.404
-0.089,-0.001,0.963,1.160,1.465,1.465
-0.090,-0.000,0.966,0.610,1.648,1.404
-0.090,-0.003,0.968,0.854,1.953,1.587
-0.087,-0.002,0.969,1.099,1.953,1.587
-0.088,-0.004,0.970,0.610,1.770,0.916
-0.091,-0.001,0.972,0.916,1.953,1.282
-0.092,0.002,0.964,0.916,1.587,1.526
-0.099,0.002,0.953,0.793,1.709,1.282
-0.093,-0.000,0.966,0.366,3.174,2.258
-0.084,-0.008,0.968,0.244,4.333,2.258
-0.085,0.004,0.969,-0.366,3.113,2.258
-0.084,-0.001,0.966,1.099,2.319,1.709
-0.086,-0.003,0.973,0.793,2.319,1.038
-0.083,-0.007,0.967,2.319,2.136,0.854
-0.085,-0.004,0.972,0.977,1.709,0.854
-0.086,-0.001,0.973,1.770,1.465,0.916
-0.089,0.001,0.971,1.526,1.648,0.977
-0.089,-0.000,0.965,1.282,1.343,1.343
-0.083,-0.000,0.966,1.160,1.343,1.526
-0.090,-0.003,0.963,0.854,1.221,1.282
-0.091,-0.000,0.966,0.854,1.770,1.526
-0.094,-0.005,0.919,-3.784,1.587,2.014
-0.077,-0.004,0.984,3.662,2.747,1.892
-0.083,-0.004,0.976,3.357,2.014,0.671
-0.091,0.002,0.971,0.366,0.671,1.648
-0.093,-0.002,0.957,1.831,0.916,1.587
-0.089,-0.005,0.958,0.671,2.014,1.465
-0.080,-0.005,0.963,0.793,2.441,1.343
-0.081,-0.003,0.970,0.671,2.502,1.160
-0.088,-0.002,0.967,1.282,2.136,0.732
-0.094,0.000,0.969,1.160,2.380,1.038
-0.089,-0.000,0.974,1.343,2.014,1.648
-0.080,-0.005,0.968,1.099,1.770,1.648
-0.085,-0.003,0.973,0.671,2.136,1.465
-0.083,-0.004,0.970,1.099,1.404,1.587
-0.107,-0.023,0.958,0.793,1.404,1.038
-0.098,-0.020,0.962,0.793,2.502,1.404
-0.136,-0.035,0.974,0.732,2.563,1.831
-0.090,0.016,0.974,0.916,1.953,1.831
-0.042,0.041,0.967,1.038,1.892,1.831
-0.070,-0.003,0.965,0.977,2.136,2.319
-0.056,-0.004,0.967,0.916,1.709,2.136
-0.123,-0.047,0.965,0.977,1.587,1.831
-0.124,-0.020,0.965,0.916,1.892,1.526
-0.054,0.038,0.967,1.160,2.197,1.587
-0.046,0.026,0.968,0.671,2.136,1.953
-0.038,0.027,0.974,1.343,2.075,1.892
-0.099,-0.028,0.965,1.160,1.526,1.770
-0.142,-0.038,0.965,0.977,1.892,1.892
-0.085,0.001,0.970,0.916,1.526,1.953
-0.086,-0.003,0.973,1.038,2.075,1.831
-0.083,-0.002,0.972,1.160,1.709,1.526
-0.084,-0.001,0.970,0.916,1.282,1.526
-0.085,-0.005,0.963,1.404,1.343,1.404
-0.089,-0.003,0.963,0.977,1.465,1.099
-0.087,0.000,0.968,1.160,2.136,1.160
-0.084,-0.000,0.966,1.343,2.258,1.404
-0.085,-0.001,0.968,1.343,2.441,1.465
-0.083,-0.001,0.972,1.160,2.258,1.709
-0.085,-0.005,0.969,1.404,1.892,1.465
-0.081,-0.005,0.971,1.404,2.075,1.465
-0.081,-0.007,0.969,1.282,1.526,1.221
-0.087,-0.002,0.969,0.854,1.892,0.977
-0.086,0.002,0.974,1.038,1.587,1.282
-0.090,-0.001,0.961,1.587,1.587,1.465
-0.088,-0.003,0.971,0.732,2.258,1.648
-0.082,-0.006,0.974,1.587,1.953,1.709
-0.080,-0.004,0.974,1.038,1.709,1.587
-0.085,-0.002,0.967,1.526,1.038,1.526
-0.087,-0.001,0.963,1.526,1.465,1.343
-0.081,-0.003,0.969,1.160,1.770,1.465
-0.085,-0.005,0.953,0.427,1.831,1.587
-0.091,0.000,0.968,-0.061,2.502,2.136
-0.080,-0.003,0.976,1.404,2.747,2.197
-0.083,-0.001,0.980,2.441,1.892,0.854
-0.092,-0.002,0.969,0.977,1.160,1.709
-0.092,-0.005,0.963,1.099,1.343,1.709
-0.092,-0.007,0.963,1.038,2.075,1.709
-0.134,-0.045,0.972,0.732,2.441,1.770
-0.131,-0.048,0.980,0.671,1.770,1.831
-0.097,-0.001,0.975,1.221,1.099,1.099

-0.042,0.034,0.964,1.221,1.099,0.732
-0.064,0.006,0.960,0.916,1.343,0.671
-0.093,-0.000,0.967,1.038,1.709,0.916
-0.084,-0.001,0.969,0.854,1.831,1.160
-0.119,-0.022,0.967,0.671,1.648,1.343
-0.058,0.026,0.963,0.854,1.709,1.343
-0.036,0.028,0.966,0.549,1.953,1.465
-0.037,0.032,0.969,1.160,1.831,1.282
-0.089,-0.021,0.968,1.099,1.709,1.160
-0.098,-0.010,0.968,0.977,1.465,1.160
-0.089,0.000,0.967,1.587,2.136,1.892
-0.082,-0.003,0.963,0.854,1.465,1.465
-0.038,0.030,0.963,0.854,2.319,0.854
-0.051,0.003,0.971,0.610,2.747,0.977
-0.120,-0.040,0.973,1.099,1.770,0.732
-0.125,-0.017,0.974,1.038,1.282,0.977
-0.110,-0.009,0.968,1.343,1.160,1.282
-0.086,0.000,0.966,0.793,2.014,1.404
-0.082,-0.004,0.969,0.854,1.831,1.648
-0.082,-0.015,0.976,0.732,1.892,1.770
-0.134,-0.041,0.973,0.916,2.014,1.404
-0.138,-0.040,0.974,0.671,1.465,1.526
-0.105,0.005,0.970,1.221,1.404,1.526
-0.040,0.041,0.968,0.549,1.587,1.648
-0.092,-0.003,0.962,0.916,1.953,1.709
-0.087,-0.003,0.973,0.732,2.014,2.075
-0.105,-0.018,0.973,1.465,1.404,1.831
-0.128,-0.023,0.969,1.587,1.587,1.831
-0.057,0.029,0.971,0.977,1.404,1.892
-0.067,0.023,0.970,1.343,1.770,1.587
-0.036,0.031,0.964,0.793,1.831,1.221
-0.092,-0.012,0.955,1.099,2.136,1.221
-0.085,-0.000,0.967,0.793,2.136,1.038
-0.086,-0.001,0.970,1.099,2.014,1.465
-0.109,-0.003,0.971,0.854,1.648,1.709
-0.036,0.032,0.969,1.038,1.465,1.770
-0.045,0.039,0.971,1.160,2.136,1.709
-0.046,0.010,0.964,1.160,1.770,1.709
-0.112,-0.040,0.959,1.404,1.648,1.160
-0.081,-0.004,0.969,0.671,2.563,1.160
-0.081,-0.000,0.973,0.916,2.197,0.793
-0.081,0.027,0.965,0.977,1.831,1.404
-0.042,0.042,0.964,1.160,1.770,2.441
-0.032,0.036,0.969,0.977,2.075,2.563
-0.070,-0.018,0.962,0.854,1.953,2.563
-0.132,-0.050,0.964,0.977,1.892,1.648
-0.087,-0.005,0.966,0.916,2.380,1.404
-0.086,-0.001,0.972,0.977,2.380,1.160
-0.062,0.022,0.974,0.854,2.441,1.526
-0.047,0.015,0.967,1.404,1.465,2.075
-0.046,0.021,0.963,0.610,1.465,1.648
-0.110,-0.032,0.958,1.038,1.587,1.892
-0.135,-0.033,0.967,0.916,2.075,2.075
-0.079,0.004,0.976,0.977,2.136,1.465
-0.083,-0.000,0.965,0.916,1.953,1.526
-0.084,-0.001,0.968,0.732,2.197,1.404
-0.073,-0.007,0.965,0.977,1.892,1.282
-0.133,-0.041,0.968,0.977,1.892,1.587
-0.110,-0.005,0.968,1.038,1.892,1.099
-0.118,-0.006,0.973,0.732,2.319,1.587
-0.066,0.027,0.979,0.793,2.319,1.831
-0.082,-0.004,0.968,1.160,1.709,1.038
-0.086,-0.001,0.973,0.916,2.380,1.648
-0.101,-0.023,0.966,1.221,1.282,1.343
-0.138,-0.033,0.960,1.526,2.014,0.977
-0.074,0.020,0.972,0.671,2.686,1.587
-0.079,0.012,0.980,0.916,2.441,1.221
-0.032,0.039,0.972,1.099,1.709,0.610
-0.088,0.000,0.964,1.160,1.709,0.916
-0.087,-0.000,0.968,1.160,1.831,1.282
-0.132,-0.032,0.971,1.282,2.014,1.465
-0.117,-0.015,0.968,1.343,1.953,2.319
-0.046,0.037,0.975,0.793,2.319,1.892
-0.037,0.021,0.972,1.282,2.075,2.014
-0.037,0.026,0.969,0.793,1.709,1.648
-0.087,-0.006,0.965,0.977,1.709,1.709
-0.086,-0.001,0.965,1.099,1.526,1.770
-0.088,-0.000,0.967,0.610,1.831,1.953
-0.095,0.009,0.970,1.038,2.258,2.380
-0.030,0.035,0.973,1.099,2.014,2.197
-0.062,-0.005,0.969,0.977,1.465,1.953
-0.128,-0.043,0.963,1.526,1.709,1.465
-0.098,-0.018,0.957,0.732,1.892,1.343
-0.083,-0.001,0.967,0.916,2.258,1.221
-0.081,0.002,0.971,0.610,2.075,1.526
-0.034,0.023,0.966,1.465,2.014,1.282
-0.105,-0.027,0.966,1.038,2.014,1.343
-0.095,-0.022,0.966,1.160,2.197,1.526
-0.130,-0.037,0.973,1.221,1.831,2.380
-0.079,0.012,0.972,0.977,1.465,1.648
-0.077,0.001,0.972,1.160,1.892,1.465
-0.078,-0.001,0.972,1.526,1.709,1.892
-0.086,0.002,0.964,1.160,1.343,1.038
-0.130,-0.036,0.967,1.160,2.502,1.343
-0.112,-0.015,0.975,0.977,2.380,1.770
-0.120,-0.021,0.977,0.977,1.587,1.709
-0.057,0.028,0.967,1.587,1.648,1.404
-0.075,0.005,0.964,1.099,2.136,1.221
-0.082,-0.004,0.972,0.854,2.258,1.404
-0.084,-0.005,0.973,0.977,2.014,1.343

-0.137,-0.035,0.974,1.160,1.648,1.526
-0.087,0.013,0.978,1.038,1.770,2.014
-0.030,0.034,0.968,0.549,1.038,1.709
-0.066,-0.004,0.958,0.854,1.343,1.038
-0.128,0.018,0.954,0.549,2.075,1.160
-0.086,-0.001,0.971,-0.061,2.258,1.221
-0.084,0.001,0.976,0.854,1.831,1.343
-0.089,0.001,0.971,0.916,1.404,1.343
-0.089,0.004,0.966,0.977,1.526,1.465
-0.085,-0.001,0.968,1.038,1.770,2.197
-0.079,-0.008,0.965,0.916,1.526,1.770
-0.080,-0.009,0.964,0.854,1.770,0.671
-0.080,-0.008,0.970,0.549,1.709,0.427
-0.082,-0.001,0.973,0.610,1.892,0.122
-0.088,0.005,0.964,1.465,1.465,0.610
-0.089,0.006,0.964,0.671,1.709,1.038
-0.084,0.004,0.967,0.732,2.014,1.160
-0.083,-0.000,0.972,1.221,2.014,1.404
-0.076,0.000,0.979,1.038,1.770,1.709
-0.075,-0.005,0.969,1.465,0.977,1.221
-0.078,-0.011,0.935,-1.648,-0.305,0.427
-0.089,0.014,0.983,0.854,3.662,2.319
-0.077,-0.006,0.969,4.578,2.930,1.221
-0.087,0.006,0.981,-0.977,2.075,1.343
-0.082,-0.001,0.975,2.380,1.831,1.526
-0.140,-0.032,0.971,0.366,1.526,1.465
-0.099,-0.001,0.966,1.587,1.587,2.136
-0.033,0.033,0.966,0.916,1.953,1.648
-0.047,0.002,0.965,0.854,2.014,1.221
-0.121,-0.043,0.966,1.343,1.526,0.854
-0.123,-0.032,0.960,1.160,1.648,0.854
-0.134,-0.015,0.971,1.160,2.319,1.404
-0.075,0.012,0.977,0.977,2.075,1.709
-0.079,0.000,0.974,0.732,1.831,1.587
-0.084,-0.000,0.967,0.916,1.526,1.282
-0.089,0.000,0.964,0.793,1.709,1.831
-0.092,0.014,0.971,0.610,1.831,2.136
-0.032,0.044,0.970,0.977,1.892,1.953
-0.065,-0.000,0.960,0.793,1.587,2.014
-0.132,-0.041,0.960,1.038,1.892,2.014
-0.127,-0.040,0.961,0.916,2.197,1.953
-0.120,-0.014,0.970,0.854,2.136,2.075
-0.051,0.036,0.970,0.916,2.319,1.892
-0.040,0.022,0.964,1.770,2.808,1.282
-0.099,-0.029,0.971,0.244,2.441,1.892
-0.093,-0.022,0.971,1.465,1.831,1.587
-0.134,-0.030,0.973,1.465,2.075,2.014
-0.081,0.014,0.975,1.038,1.770,1.648
-0.029,0.031,0.962,1.160,1.526,0.854
-0.038,0.036,0.969,1.038,1.709,1.526
-0.084,0.000,0.962,1.160,1.160,0.854
-0.087,0.000,0.964,0.793,1.648,0.916
-0.081,0.003,0.975,0.916,2.136,1.465
-0.085,0.009,0.944,-3.174,-0.305,1.587
-0.091,0.018,0.972,-0.305,0.916,3.601
-0.077,-0.001,0.973,2.502,3.235,3.174
-0.074,-0.009,0.973,0.977,2.319,2.136
-0.076,-0.006,0.970,0.366,1.770,1.526
-0.089,0.003,0.962,0.610,2.319,0.671
-0.090,0.010,0.970,1.709,2.930,0.854
-0.088,0.011,0.979,2.258,3.113,1.465
-0.083,0.005,0.981,2.930,2.136,2.136
-0.074,-0.003,0.979,3.174,1.038,1.404
-0.089,-0.002,0.954,0.916,0.549,1.160
-0.089,-0.001,0.953,0.977,1.831,1.526
-0.083,-0.001,0.958,1.526,2.747,1.648
-0.079,-0.000,0.974,0.549,3.052,1.465
-0.078,-0.000,0.977,1.892,2.075,1.221
-0.076,-0.000,0.972,1.526,1.465,1.221
-0.084,0.001,0.969,1.038,1.404,0.916
-0.086,0.004,0.961,1.221,1.831,1.038
-0.083,0.004,0.965,0.854,2.441,1.465
-0.081,0.001,0.969,0.916,2.380,1.709
-0.080,-0.004,0.971,0.793,2.136,1.709
-0.078,-0.005,0.974,0.610,2.136,1.404
-0.080,-0.001,0.975,0.916,1.526,1.282
-0.082,-0.000,0.972,1.221,1.282,1.099
-0.083,0.002,0.967,1.221,1.282,1.160
-0.082,0.004,0.964,1.160,1.282,1.343
-0.082,0.000,0.966,1.038,1.587,1.282
-0.084,0.002,0.970,0.916,1.404,1.648
-0.086,0.002,0.962,1.465,1.221,1.709
-0.090,-0.000,0.958,1.038,1.648,1.526
-0.083,0.002,0.972,0.610,2.441,1.648
-0.079,0.000,0.970,1.160,2.258,1.831
-0.081,-0.000,0.969,0.732,2.197,1.587
-0.080,-0.002,0.971,1.099,2.197,1.526
-0.079,-0.001,0.977,0.977,1.953,1.465
-0.080,-0.001,0.970,1.831,1.221,1.282
-0.082,0.001,0.967,1.160,0.977,1.343
-0.085,0.001,0.969,1.160,1.221,1.404
-0.084,0.005,0.971,1.160,1.160,1.282
-0.079,-0.023,0.912,0.366,0.916,1.770
-0.086,0.006,0.973,-4.761,2.686,2.380
-0.076,-0.002,0.998,7.019,3.723,0.610
-0.088,-0.001,0.976,0.427,0.977,1.343
-0.097,0.005,0.970,1.038,0.488,2.136
-0.092,-0.004,0.958,2.625,2.258,1.953
-0.073,-0.004,0.974,0.549,1.953,2.136
-0.069,-0.009,0.974,1.343,1.282,1.282

-0.081,-0.004,0.966,0.732,0.732,0.061
-0.090,0.002,0.963,0.854,0.854,-0.244
-0.090,0.011,0.968,1.099,1.404,0.366
-0.084,0.004,0.963,0.916,1.526,1.221
-0.090,0.022,0.995,-3.296,2.686,1.404
-0.075,0.002,0.979,5.737,2.808,1.648
-0.083,0.005,0.975,-1.221,0.610,2.136
-0.091,-0.001,0.955,2.380,0.671,1.465
-0.117,-0.032,0.961,0.671,2.441,1.770
-0.110,-0.013,0.974,0.854,2.014,1.587
-0.081,-0.002,0.977,1.221,2.441,1.587
-0.076,-0.002,0.974,0.916,1.160,1.343
-0.083,-0.003,0.965,1.221,0.916,1.038
-0.086,0.002,0.964,0.610,1.404,1.221
-0.085,0.005,0.961,0.427,1.282,1.038
-0.090,0.001,0.959,0.366,2.197,1.038
-0.080,0.002,0.975,0.793,2.686,1.160
-0.077,0.003,0.977,0.549,2.075,1.221
-0.087,0.005,0.967,1.221,1.221,1.160
-0.091,0.006,0.958,1.038,1.465,1.770
-0.084,-0.001,0.969,0.854,2.197,1.831
-0.080,-0.004,0.972,0.854,1.831,1.648
-0.080,-0.002,0.967,1.343,1.465,1.282
-0.086,0.002,0.967,0.793,2.014,0.916
-0.087,0.003,0.967,1.038,1.892,1.282
-0.088,0.003,0.965,0.793,1.709,1.526
-0.084,0.002,0.966,0.977,1.831,1.526
-0.085,0.003,0.968,0.854,1.770,1.526
-0.088,0.002,0.966,0.610,1.465,1.587
-0.088,0.002,0.968,0.793,1.526,1.465
-0.085,0.003,0.970,0.793,1.526,1.587
-0.085,0.003,0.968,1.160,1.282,1.709
-0.085,0.002,0.961,1.282,1.282,1.343
-0.085,0.002,0.962,0.854,1.465,1.221
-0.080,0.003,0.960,1.160,1.465,1.160
-0.085,0.003,0.963,0.671,1.831,0.793
-0.084,0.010,0.965,0.916,1.953,0.916
-0.086,0.007,0.969,0.916,2.075,1.404
-0.086,0.006,0.970,0.793,1.953,1.648
-0.086,0.006,0.969,1.099,1.648,1.770
-0.085,0.001,0.966,1.099,1.892,1.953
-0.081,-0.000,0.973,0.732,1.831,1.709
-0.079,-0.004,0.968,1.404,1.465,1.038
-0.089,0.007,0.966,1.465,1.709,0.916
-0.091,0.011,0.961,1.221,1.282,1.282
-0.096,0.006,0.955,1.099,1.709,1.587
-0.087,0.001,0.968,0.732,3.052,2.075
-0.081,0.005,0.956,-1.465,2.991,1.770
-0.076,0.005,0.983,1.648,2.258,1.404
-0.088,-0.000,0.964,3.845,1.404,0.671
-0.092,0.007,0.964,0.244,1.526,1.587
-0.089,0.001,0.965,2.014,2.014,1.526
-0.060,0.026,0.965,1.099,2.258,1.831
-0.036,0.022,0.964,1.160,2.319,1.892
-0.092,-0.024,0.974,1.404,2.625,1.831
-0.129,-0.028,0.976,1.221,1.831,1.953
-0.079,0.019,0.969,1.099,1.831,1.648
-0.036,0.002,0.963,1.038,2.014,1.404
-0.044,0.041,0.956,0.732,2.502,1.465
-0.066,0.003,0.967,0.732,2.686,2.197
-0.125,-0.031,0.982,0.977,2.502,2.563
-0.109,-0.007,0.981,0.916,1.953,2.197
-0.117,-0.013,0.972,1.343,1.404,2.136
-0.055,0.031,0.959,0.977,1.221,1.709
-0.043,0.018,0.952,0.732,1.892,1.343
-0.039,0.025,0.956,0.916,2.075,1.099
-0.090,-0.019,0.968,1.038,2.258,1.465
-0.129,-0.024,0.979,1.099,2.075,1.892
-0.131,-0.029,0.978,1.221,1.770,1.892
-0.095,0.015,0.969,0.977,1.526,1.770
-0.038,0.035,0.958,1.160,1.831,1.770
-0.040,0.035,0.959,0.854,1.892,1.770
-0.054,0.005,0.959,1.038,1.953,1.465
-0.115,-0.030,0.973,0.732,2.258,1.587
-0.117,-0.011,0.976,1.587,1.831,1.160
-0.127,-0.016,0.976,0.671,2.197,1.282
-0.063,0.032,0.977,0.854,1.953,1.831
-0.039,0.025,0.960,1.282,1.099,1.343
-0.091,-0.017,0.965,1.099,1.831,1.282
-0.075,-0.015,0.966,1.221,1.892,1.404
-0.125,-0.030,0.974,0.854,1.709,1.587
-0.097,0.008,0.966,1.526,1.648,1.587
-0.039,0.036,0.959,0.854,2.258,1.465
-0.040,0.033,0.969,1.160,2.319,1.770
-0.049,0.009,0.965,1.099,1.892,1.526
-0.117,-0.027,0.973,1.343,1.831,1.770
-0.123,-0.010,0.976,1.099,1.953,2.075
-0.060,0.031,0.974,1.221,1.587,2.258
-0.065,0.024,0.965,1.099,1.709,2.380
-0.035,0.024,0.957,1.038,1.892,1.526
-0.084,-0.017,0.966,0.549,1.953,1.404
-0.080,-0.009,0.964,0.671,1.831,1.343
-0.132,-0.027,0.974,0.916,2.075,1.648
-0.100,0.006,0.972,1.099,1.953,1.892
-0.040,0.033,0.962,1.038,1.831,1.953
-0.041,0.031,0.964,0.793,1.587,1.526
-0.052,0.008,0.959,0.916,1.648,0.854
-0.113,-0.031,0.970,0.854,1.953,0.793
-0.125,-0.013,0.977,0.854,1.709,1.282
-0.128,-0.017,0.976,1.160,1.648,1.221

-0.071,0.028,0.970,0.671,1.465,1.465
-0.037,0.033,0.961,1.099,1.343,0.977
-0.083,-0.007,0.964,1.038,1.343,1.404
-0.128,-0.025,0.971,0.977,1.587,1.709
-0.127,-0.028,0.972,1.038,1.465,1.648
-0.106,0.006,0.967,0.977,1.831,1.770
-0.040,0.037,0.959,0.977,2.014,1.648
-0.048,0.005,0.965,0.732,1.953,1.404
-0.047,0.013,0.966,0.916,2.197,1.465
-0.109,-0.026,0.971,1.038,1.221,1.770
-0.131,-0.020,0.968,0.977,1.404,1.770
-0.081,0.003,0.968,1.099,2.258,1.343
-0.078,-0.000,0.971,1.282,2.197,1.099
-0.082,0.003,0.972,0.977,1.831,1.099
-0.083,0.001,0.970,1.587,1.526,1.343
-0.086,0.001,0.966,1.099,1.465,1.160
-0.084,-0.001,0.964,1.099,1.953,1.099
-0.077,-0.000,0.969,0.732,1.953,0.854
-0.083,0.006,0.969,0.732,1.587,0.793
-0.086,0.008,0.970,1.099,1.770,1.160
-0.086,0.006,0.968,0.916,1.465,1.526
-0.087,0.007,0.966,0.916,2.136,1.831
-0.085,0.002,0.966,0.793,2.014,2.136
-0.083,0.000,0.970,0.488,1.892,2.258
-0.082,-0.000,0.970,0.610,1.709,1.953
-0.084,-0.001,0.969,0.793,1.648,1.343
-0.083,0.000,0.970,0.732,1.587,1.343
-0.097,-0.001,0.970,0.977,1.160,1.831
-0.038,0.035,0.962,0.916,1.038,1.465
-0.057,0.003,0.953,0.916,1.038,1.038
-0.127,-0.031,0.960,0.793,1.465,1.099
-0.127,0.005,0.969,-1.648,2.380,1.221
-0.055,-0.008,0.977,2.808,2.441,1.526
-0.061,0.036,0.972,0.732,2.014,1.160
-0.039,0.031,0.961,0.916,1.526,1.343
-0.093,-0.002,0.960,1.404,1.648,1.404
-0.081,0.002,0.963,0.854,1.953,1.465
-0.077,-0.000,0.966,0.916,2.197,1.404
-0.081,0.002,0.970,0.549,2.014,0.854
-0.083,0.008,0.969,1.465,1.587,1.282
-0.090,0.006,0.957,1.160,1.038,1.282
-0.085,0.003,0.960,1.038,2.258,1.465
-0.075,0.001,0.970,0.427,2.808,1.526
-0.079,0.004,0.975,0.549,2.075,0.916
-0.083,0.001,0.963,0.916,1.282,1.343
-0.092,0.006,0.963,1.099,1.587,1.648
-0.084,0.005,0.966,1.221,2.258,1.953
-0.078,0.001,0.966,1.160,2.014,1.892
-0.082,0.002,0.966,0.854,2.380,1.587
-0.079,0.010,0.965,1.648,2.686,1.404
-0.083,0.001,0.966,0.183,2.563,1.648
-0.081,0.010,0.979,1.099,1.892,1.831
-0.084,-0.000,0.963,1.465,1.526,1.709
-0.087,0.002,0.961,0.671,1.770,1.648
-0.087,0.005,0.966,0.732,2.014,1.770
-0.081,0.005,0.970,1.221,2.136,1.648
-0.080,0.004,0.970,1.099,2.075,1.343
-0.084,0.007,0.968,1.038,1.770,1.282
-0.082,0.004,0.963,1.404,1.770,1.526
-0.085,0.006,0.963,0.916,1.953,1.343
-0.080,0.007,0.971,1.038,2.441,1.831
-0.079,0.003,0.967,0.854,1.953,1.526
-0.078,0.002,0.968,1.038,1.953,1.282
-0.080,0.005,0.968,1.221,2.014,1.343
-0.083,0.005,0.964,1.343,1.953,1.282
-0.081,0.005,0.966,0.977,2.075,1.587
-0.080,0.003,0.970,1.099,2.136,1.343
-0.082,0.002,0.966,1.099,1.831,0.854
-0.082,0.006,0.971,1.343,2.319,1.587
-0.080,0.004,0.970,1.343,1.465,1.526
-0.084,0.004,0.961,0.916,1.831,1.465
-0.080,0.006,0.973,0.854,2.197,1.343
-0.079,0.006,0.973,1.343,2.197,1.282
-0.078,0.004,0.967,1.404,1.709,1.770
-0.081,0.004,0.965,1.099,1.770,1.526
-0.083,0.004,0.967,1.221,2.075,1.160
-0.079,0.001,0.967,1.160,2.075,1.587
-0.079,0.004,0.968,1.221,2.136,1.648
-0.079,0.005,0.976,0.793,2.380,1.770
-0.077,0.005,0.974,0.977,1.709,1.770
-0.083,-0.000,0.964,1.038,0.977,1.465
-0.080,0.003,0.962,0.854,1.953,1.465
-0.081,0.003,0.965,1.282,2.197,1.099
-0.081,0.002,0.965,1.160,2.502,1.526
-0.082,0.005,0.969,0.671,2.136,1.465
-0.078,0.004,0.974,1.221,1.831,1.404
-0.075,0.002,0.974,1.160,1.404,1.221
-0.082,-0.001,0.966,1.404,0.916,1.282
-0.082,0.003,0.963,0.549,1.099,1.099
-0.067,-0.003,0.931,-0.916,0.000,0.305
-0.147,0.000,0.968,-3.784,1.648,0.488
-0.071,0.036,0.971,4.456,4.089,5.005
-0.056,0.025,0.987,1.282,2.502,1.831
-0.037,0.035,0.970,1.526,0.977,1.038
-0.083,-0.006,0.953,2.319,1.038,2.625
-0.080,0.000,0.960,1.038,1.892,1.343
-0.076,0.001,0.965,1.160,2.319,1.648
-0.076,0.001,0.973,0.793,2.014,1.160
-0.078,-0.000,0.967,1.221,1.709,0.671
-0.085,0.009,0.976,0.732,1.892,1.038

-0.083,0.008,0.967,1.709,0.977,1.465
-0.085,0.006,0.962,0.916,1.892,1.648
-0.091,-0.009,0.970,0.854,2.136,1.831
-0.124,-0.021,0.973,0.854,2.075,2.380
-0.068,0.026,0.964,0.977,1.770,1.831
-0.081,0.021,0.967,0.854,2.014,1.587
-0.034,0.035,0.963,0.610,2.258,1.343
-0.071,-0.007,0.965,0.854,2.197,1.709
-0.131,-0.028,0.975,0.977,2.136,2.014
-0.104,-0.030,0.982,0.732,2.197,2.197
-0.107,-0.003,0.981,1.099,1.099,2.441
-0.043,0.031,0.962,1.160,1.160,1.770
-0.036,0.013,0.959,0.366,1.160,0.916
-0.039,0.025,0.956,0.793,1.770,0.549
-0.105,-0.019,0.969,0.305,1.892,1.160
-0.136,-0.010,0.980,0.610,1.709,1.892
-0.133,-0.019,0.976,1.038,1.343,2.258
-0.081,0.022,0.970,0.671,1.343,2.075
-0.032,0.034,0.959,0.977,1.465,2.075
-0.063,-0.006,0.959,0.732,1.465,1.648
-0.054,-0.001,0.958,0.610,1.892,1.038
-0.121,-0.027,0.972,0.610,2.014,1.038
-0.112,0.004,0.975,0.977,1.892,1.648
-0.047,0.042,0.969,0.549,1.526,1.648
-0.057,0.036,0.966,0.977,1.404,1.709
-0.039,0.029,0.961,1.099,1.526,1.587
-0.094,-0.018,0.968,1.160,1.587,1.953
-0.128,-0.019,0.972,0.916,1.343,2.075
-0.079,0.025,0.966,0.916,1.465,1.526
-0.033,0.038,0.960,0.549,1.648,1.465
-0.033,0.037,0.963,0.671,1.770,0.793
-0.064,0.003,0.971,0.549,2.075,1.160
-0.127,-0.024,0.976,1.038,0.977,1.709
-0.118,0.006,0.965,1.709,1.099,1.099
-0.046,0.040,0.967,0.610,2.014,1.587
-0.047,0.041,0.969,0.854,1.648,1.282
-0.036,0.026,0.963,0.793,1.221,1.221
-0.104,-0.019,0.968,1.038,1.099,1.282
-0.131,-0.018,0.971,1.160,1.221,1.648
-0.075,0.026,0.964,0.854,1.465,1.465
-0.082,0.028,0.965,0.732,1.648,1.709
-0.036,0.045,0.960,0.488,2.014,1.404
-0.073,0.005,0.966,0.732,2.197,1.465
-0.133,-0.025,0.971,1.099,1.648,2.319
-0.108,0.008,0.972,0.366,1.770,1.953
-0.119,0.000,0.968,0.916,1.770,1.953
-0.052,0.041,0.965,0.793,2.197,2.075
-0.044,0.025,0.968,0.366,2.258,1.831
-0.038,0.029,0.964,1.160,1.587,1.526
-0.103,-0.016,0.967,0.732,1.099,1.770
-0.133,-0.020,0.967,1.282,1.221,2.197
-0.075,0.027,0.962,0.305,1.587,1.465
-0.082,0.024,0.966,0.793,1.831,1.404
-0.033,0.046,0.958,0.854,2.197,0.854
-0.070,0.038,0.960,0.977,2.197,1.221
-0.060,0.017,0.960,1.038,2.502,1.770
-0.126,-0.019,0.976,0.610,2.686,2.319
-0.117,0.003,0.978,1.038,2.258,2.380
-0.120,-0.008,0.978,0.977,2.136,2.258
-0.051,0.036,0.968,0.488,1.770,1.770
-0.037,0.033,0.956,1.099,2.136,0.916
-0.099,-0.012,0.967,0.732,2.197,1.892
-0.073,-0.013,0.958,1.099,1.526,0.977
-0.138,-0.021,0.967,1.282,2.502,1.282
-0.084,0.023,0.976,0.854,2.869,1.831
-0.026,0.046,0.972,0.610,2.258,1.465
-0.039,0.049,0.961,1.465,1.465,1.465
-0.056,0.011,0.960,0.977,1.831,1.709
-0.121,-0.023,0.971,1.282,1.953,1.648
-0.119,-0.001,0.975,1.282,1.831,1.953
-0.126,-0.003,0.973,1.099,1.831,1.831
-0.056,0.042,0.970,1.038,2.075,1.831
-0.032,0.034,0.960,1.038,1.343,1.709
-0.090,-0.010,0.968,0.854,1.648,1.648
-0.084,-0.004,0.960,1.160,1.343,1.465
-0.143,-0.020,0.965,0.977,1.648,2.014
-0.099,0.022,0.968,1.038,1.953,2.563
-0.031,0.045,0.970,1.099,2.075,2.502
-0.029,0.040,0.968,1.465,1.709,1.831
-0.048,0.009,0.960,1.038,1.770,1.404
-0.123,-0.028,0.962,1.221,1.709,1.221
-0.127,-0.005,0.966,1.099,2.136,0.977
-0.132,-0.009,0.977,1.221,2.075,1.404
-0.060,0.039,0.972,1.770,1.953,1.465
-0.031,0.036,0.968,1.099,1.770,1.160
-0.088,-0.014,0.966,1.709,1.526,0.793
-0.081,-0.007,0.961,1.465,1.526,0.916
-0.133,-0.026,0.970,0.977,1.587,1.343
-0.094,0.021,0.971,1.343,1.648,1.465
-0.033,0.049,0.968,1.038,1.953,1.099
-0.034,0.054,0.967,1.038,1.587,1.526
-0.047,0.016,0.961,1.221,1.892,0.916
-0.119,-0.025,0.970,0.793,2.014,1.465
-0.125,-0.007,0.970,1.526,1.465,2.136
-0.062,0.041,0.965,1.221,2.197,1.770
-0.058,0.033,0.974,1.221,2.686,2.075
-0.025,0.037,0.974,0.793,2.319,1.404
-0.086,-0.013,0.964,1.404,1.343,0.916
-0.140,-0.028,0.959,1.343,1.648,1.221
-0.090,0.018,0.969,0.977,2.197,1.343

-0.099,0.012,0.977,1.099,2.197,1.282
-0.031,0.049,0.972,1.404,2.136,1.282
-0.047,0.016,0.969,0.793,1.831,1.282
-0.127,-0.024,0.968,1.038,1.892,1.282
-0.124,-0.024,0.965,0.854,1.587,1.648
-0.127,-0.012,0.977,0.793,1.648,2.197
-0.054,0.037,0.973,0.671,1.221,1.648
-0.030,0.037,0.963,0.732,1.282,1.099
-0.092,-0.014,0.961,0.732,1.587,1.404
-0.078,-0.002,0.968,0.977,1.465,1.099
-0.088,0.011,0.965,0.854,1.343,1.404
-0.085,0.012,0.965,0.854,1.465,1.587
-0.081,0.011,0.968,0.916,1.648,1.892
-0.079,0.007,0.966,0.549,1.770,1.709
-0.083,0.009,0.966,0.793,1.770,1.343
-0.083,0.009,0.966,0.916,1.648,1.709
-0.084,0.008,0.968,0.977,1.770,1.465
-0.082,0.009,0.970,1.221,1.587,1.526
-0.082,0.013,0.969,0.916,1.404,1.587
-0.083,0.011,0.968,1.038,1.404,1.587
-0.082,0.006,0.963,1.282,1.282,1.465
-0.084,0.009,0.969,0.549,1.465,1.526
-0.081,0.009,0.969,1.343,1.404,1.465
-0.083,0.007,0.966,0.854,1.038,1.099
-0.086,0.000,0.926,0.305,1.343,1.221
-0.086,0.020,0.978,2.686,2.930,1.831
-0.083,0.003,0.964,2.625,2.319,0.977
-0.086,0.013,0.976,-0.061,2.136,1.892
-0.078,0.005,0.969,1.587,2.197,1.282
-0.082,0.009,0.968,0.854,2.075,1.160
-0.084,0.009,0.968,1.160,1.648,1.465
-0.082,0.007,0.966,1.282,1.770,1.404
-0.080,0.007,0.968,0.854,1.709,1.221
-0.083,0.010,0.970,1.282,1.648,1.038
-0.086,0.013,0.968,0.977,1.587,1.099
-0.085,0.012,0.969,1.099,1.831,1.465
-0.102,0.008,0.965,1.160,1.892,1.709
-0.104,0.006,0.971,0.854,1.892,2.258
-0.039,0.051,0.964,0.793,1.953,1.587
-0.048,0.023,0.960,0.732,1.953,1.648
-0.120,-0.024,0.966,0.671,1.831,2.197
-0.130,-0.010,0.974,0.916,1.770,2.075
-0.133,-0.021,0.967,1.221,1.709,2.136
-0.066,0.038,0.967,0.549,1.648,1.892
-0.026,0.041,0.964,0.671,2.136,1.770
-0.082,-0.009,0.960,0.732,2.319,0.854
-0.140,-0.029,0.968,0.610,2.319,0.977
-0.082,0.007,0.970,1.160,2.197,0.916
-0.084,0.013,0.969,1.587,1.831,1.221
-0.084,0.013,0.967,1.282,1.892,1.221
-0.081,0.011,0.967,1.221,2.014,1.404
-0.077,0.010,0.968,1.038,2.075,1.343
-0.079,0.009,0.966,0.793,1.709,0.732
-0.086,0.016,0.968,1.099,2.441,1.099
-0.085,0.013,0.966,1.038,1.648,1.526
-0.113,0.009,0.957,1.221,2.197,1.526
-0.030,0.048,0.974,0.732,2.502,2.380
-0.074,0.016,0.976,0.610,2.075,1.526
-0.085,0.011,0.963,1.526,1.831,1.526
-0.087,0.011,0.959,1.038,2.441,2.075
-0.082,0.011,0.969,1.099,2.625,1.831
-0.077,0.010,0.969,1.099,2.197,1.770
-0.079,0.009,0.970,0.916,2.014,2.075
-0.083,0.013,0.974,1.038,2.014,1.648
-0.081,0.011,0.972,1.648,1.892,1.953
-0.081,0.010,0.965,1.038,1.770,2.075
-0.078,0.005,0.968,1.099,1.770,1.770
-0.080,0.006,0.963,1.282,1.953,1.343
-0.080,0.006,0.969,0.671,2.197,1.404
-0.080,0.010,0.970,0.916,2.014,1.038
-0.082,0.015,0.970,0.854,1.831,1.099
-0.046,0.023,0.969,1.343,1.770,1.465
-0.119,-0.022,0.963,1.465,1.709,1.770
-0.124,-0.008,0.971,1.038,2.075,2.136
-0.052,0.042,0.973,1.282,2.136,2.136
-0.061,0.037,0.973,1.282,2.014,1.831
-0.027,0.038,0.964,1.282,1.953,1.526
-0.082,0.006,0.965,0.793,1.770,1.282
-0.083,0.011,0.968,1.282,2.014,1.404
-0.079,0.008,0.971,1.282,1.953,1.892
-0.077,0.006,0.969,1.404,2.014,1.770
-0.075,0.009,0.970,1.404,1.892,1.587
-0.078,0.009,0.969,1.160,1.709,1.404
-0.078,0.006,0.963,1.465,1.465,1.221
-0.081,0.010,0.966,1.160,2.197,1.465
-0.079,0.015,0.971,0.916,1.831,1.587
-0.084,0.009,0.963,1.038,2.014,1.648
-0.077,0.008,0.973,1.099,2.319,1.770
-0.073,0.005,0.975,0.977,2.197,1.526
-0.061,0.021,0.971,0.854,1.648,1.221
-0.072,0.030,0.965,1.587,1.160,1.160
-0.028,0.043,0.965,1.038,1.770,1.282
-0.076,-0.008,0.964,1.282,1.953,1.404
-0.131,-0.033,0.966,1.221,2.075,1.587
-0.098,-0.029,0.971,1.221,2.197,1.465
-0.108,0.008,0.981,0.610,2.197,1.831
-0.038,0.045,0.976,1.221,1.526,2.014
-0.043,0.017,0.968,1.160,1.343,1.648
-0.112,-0.034,0.966,0.671,0.916,1.404
-0.128,-0.018,0.959,0.793,1.160,0.793

-0.135,-0.020,0.967,0.366,1.526,1.404
-0.067,0.038,0.976,0.427,1.587,1.160
-0.030,0.051,0.971,0.793,1.404,1.160
-0.081,-0.005,0.967,0.916,1.404,1.709
-0.071,-0.004,0.960,1.038,1.160,1.648
-0.134,-0.034,0.961,0.549,1.465,1.709
-0.102,0.009,0.968,0.610,1.831,1.465
-0.078,0.011,0.974,0.793,2.197,1.221
-0.082,0.008,0.974,0.732,1.770,1.038
-0.081,0.009,0.973,1.099,1.648,1.282
-0.085,0.013,0.973,0.732,1.282,1.221
-0.083,0.008,0.968,1.282,1.099,1.465
-0.083,0.008,0.964,1.465,1.160,1.282
-0.080,0.013,0.966,1.038,1.709,1.404
-0.078,0.005,0.965,0.854,1.526,1.038
-0.086,0.010,0.966,1.343,2.014,0.732
-0.083,0.013,0.970,1.160,1.953,1.404
-0.085,0.012,0.964,0.854,1.648,1.282
-0.108,0.005,0.968,0.854,2.197,1.343
-0.105,0.003,0.975,0.977,2.197,1.404
-0.037,0.052,0.971,0.732,1.892,1.038
-0.046,0.028,0.961,1.221,1.465,1.160
-0.101,-0.013,0.962,1.343,1.892,1.465
-0.082,0.005,0.972,1.282,2.136,1.648
-0.074,0.007,0.973,0.977,1.526,1.465
-0.080,0.008,0.963,1.160,1.465,1.099
-0.084,0.012,0.964,0.549,1.709,1.038
-0.083,0.015,0.968,0.671,1.831,1.160
-0.080,0.010,0.969,1.404,1.892,1.831
-0.084,0.009,0.965,1.160,1.770,1.709
-0.087,0.012,0.963,0.732,2.014,1.770
-0.084,0.010,0.971,0.732,1.831,2.075
-0.128,-0.031,0.971,0.916,1.709,2.014
-0.095,-0.009,0.963,0.977,1.160,1.892
-0.082,0.008,0.961,1.160,1.038,1.587
-0.083,0.012,0.962,0.854,1.404,1.526
-0.082,0.011,0.963,0.671,1.526,1.648
-0.081,0.011,0.965,0.732,1.709,1.587
-0.082,0.010,0.965,0.916,1.953,1.526
-0.082,0.010,0.969,0.793,1.831,1.526
-0.085,0.008,0.963,1.160,1.892,1.404
-0.085,0.010,0.970,0.854,2.441,1.892
-0.078,0.008,0.973,1.160,1.648,1.526
-0.082,0.005,0.966,0.977,1.587,0.854
-0.087,0.012,0.972,1.099,2.380,1.343
-0.138,-0.029,0.967,1.282,1.343,1.343
-0.098,0.019,0.967,1.038,1.770,1.404
-0.025,0.052,0.974,1.038,2.502,1.770
-0.053,0.012,0.967,1.343,2.075,1.404
-0.121,-0.034,0.965,0.427,1.160,1.465
-0.127,-0.028,0.969,1.038,2.625,1.770
-0.125,-0.010,0.976,2.808,2.930,2.075
-0.046,0.041,0.977,0.061,2.075,2.380
-0.081,0.008,0.971,0.916,1.587,1.709
-0.083,0.011,0.962,0.977,2.319,1.465
-0.081,0.013,0.967,0.977,2.441,1.770
-0.079,0.008,0.971,0.854,2.625,2.075
-0.074,0.004,0.971,1.526,2.075,1.831
-0.080,0.005,0.964,1.160,1.709,1.282
-0.085,0.008,0.967,0.854,2.014,1.404
-0.083,0.009,0.971,0.854,2.136,1.404
-0.081,0.011,0.973,1.099,2.197,1.465
-0.131,-0.026,0.972,1.404,1.221,1.709
-0.102,0.007,0.972,1.221,1.526,1.892
-0.111,-0.002,0.967,1.343,1.770,1.587
-0.043,0.049,0.969,0.793,2.014,1.099
-0.040,0.030,0.965,0.732,1.953,1.343
-0.109,-0.027,0.960,0.916,2.197,1.221
-0.133,-0.015,0.972,0.610,2.319,1.221
-0.131,-0.022,0.974,0.977,2.258,2.075
-0.072,0.033,0.979,0.549,1.770,1.892
-0.027,0.047,0.966,1.282,1.526,1.648
-0.072,-0.008,0.962,1.221,1.709,1.587
-0.063,0.001,0.964,0.977,1.953,1.099
-0.125,-0.033,0.966,1.221,1.892,1.282
-0.108,0.003,0.972,0.916,1.953,1.038
-0.039,0.053,0.973,0.854,2.136,1.038
-0.042,0.026,0.967,1.038,1.709,1.587
-0.043,0.034,0.964,1.404,1.831,1.221
-0.100,-0.024,0.967,1.038,2.197,1.709
-0.128,-0.021,0.972,1.099,1.953,1.648
-0.064,0.033,0.973,1.282,1.770,1.526
-0.026,0.045,0.966,1.282,1.709,1.648
-0.028,0.048,0.968,1.282,1.648,1.343
-0.071,-0.001,0.959,1.587,1.892,1.343
-0.130,-0.031,0.966,0.977,2.380,1.709
-0.103,0.011,0.978,0.854,2.136,1.770
-0.033,0.049,0.972,1.831,2.014,1.831
-0.038,0.048,0.967,0.732,2.014,1.526
-0.039,0.029,0.967,0.854,2.136,1.099
-0.112,-0.025,0.966,0.977,2.075,1.465
-0.133,-0.019,0.972,1.221,1.953,1.648
-0.064,0.037,0.979,0.793,1.709,1.831
-0.070,0.032,0.982,1.038,1.465,1.709
-0.025,0.047,0.971,1.282,0.916,1.099
-0.073,-0.006,0.958,1.160,0.916,1.343
-0.136,-0.034,0.962,0.610,1.160,1.526
-0.098,0.011,0.969,0.732,1.282,1.099
-0.108,0.008,0.975,0.488,1.648,1.282
-0.038,0.052,0.969,1.099,1.587,1.343

-0.044,0.025,0.961,1.038,1.831,1.221
-0.116,-0.023,0.966,0.793,1.770,1.587
-0.131,-0.014,0.971,1.526,1.648,1.770
-0.131,-0.024,0.972,0.793,1.953,2.136
-0.067,0.036,0.975,0.916,1.526,1.404
-0.028,0.043,0.960,1.282,1.831,1.221
-0.082,-0.007,0.967,0.488,2.319,1.282
-0.065,-0.008,0.962,1.587,1.892,1.160
-0.136,-0.030,0.972,0.977,1.709,1.160
-0.105,0.017,0.976,1.282,1.953,1.709
-0.035,0.050,0.964,1.221,1.404,1.526
-0.036,0.046,0.972,0.671,2.197,1.404
-0.031,0.024,0.971,0.671,2.197,0.977
-0.104,-0.022,0.971,1.343,1.587,0.916
-0.134,-0.011,0.967,0.977,0.977,1.343
-0.142,-0.017,0.969,1.038,1.709,1.526
-0.068,0.032,0.973,1.282,2.014,2.258
-0.022,0.041,0.969,0.793,1.770,2.014
-0.075,-0.006,0.960,0.977,1.404,1.526
-0.070,0.005,0.960,0.427,2.075,1.526
-0.139,-0.030,0.966,1.221,2.136,1.892
-0.109,0.007,0.973,1.099,2.625,2.319
-0.034,0.048,0.976,0.671,2.197,2.197
-0.041,0.020,0.964,0.977,1.770,1.892
-0.038,0.030,0.961,0.854,1.587,1.770
-0.110,-0.024,0.964,1.221,1.892,1.709
-0.133,-0.015,0.972,1.160,1.587,2.014
-0.078,0.031,0.970,1.221,1.404,1.953
-0.078,0.013,0.963,1.099,1.709,1.526
-0.076,0.011,0.964,0.793,2.014,1.404
-0.079,0.011,0.965,0.916,2.014,1.038
-0.082,0.010,0.964,1.038,2.319,1.099
-0.086,0.013,0.964,1.099,2.625,1.221
-0.080,0.010,0.971,1.099,2.930,1.526
-0.075,0.009,0.976,0.854,2.563,1.831
-0.076,0.006,0.971,1.465,1.892,1.587
-0.076,0.007,0.972,1.038,1.709,1.465
-0.075,0.009,0.968,1.099,1.526,1.221
-0.084,0.010,0.966,0.793,1.953,0.610
-0.083,0.017,0.971,1.099,1.892,1.404
-0.081,0.011,0.965,1.099,1.465,1.648
-0.081,0.007,0.964,0.427,2.197,1.526
-0.072,0.007,0.975,0.854,2.136,1.160
-0.078,0.010,0.971,1.099,2.075,1.099
-0.082,0.012,0.967,1.099,1.587,1.343
-0.083,0.015,0.964,1.343,1.587,1.282
-0.080,0.010,0.970,0.977,2.197,1.404
-0.079,0.011,0.971,1.160,1.526,1.648
-0.080,0.010,0.966,1.221,1.709,1.587
-0.135,0.005,0.967,1.038,2.014,1.648
-0.132,-0.032,0.971,1.099,1.526,2.258
-0.109,0.007,0.972,1.648,1.648,1.892
-0.035,0.048,0.965,1.526,1.770,1.770
-0.041,0.022,0.962,1.099,2.014,1.465
-0.042,0.035,0.967,-0.977,2.930,2.075
-0.097,-0.025,0.981,3.357,3.418,1.892
-0.130,-0.016,0.988,1.404,1.831,1.648
-0.068,0.038,0.978,1.221,0.732,2.075
-0.078,0.007,0.961,1.526,1.221,1.709
-0.074,0.006,0.963,1.038,2.136,1.343
-0.072,0.003,0.970,1.221,2.197,1.038
-0.076,0.007,0.969,1.221,1.953,0.549
-0.080,0.011,0.973,1.282,1.953,0.488
-0.081,0.015,0.972,1.282,1.770,0.977
-0.084,0.014,0.967,1.343,1.892,1.099
-0.079,0.011,0.967,1.099,2.258,1.709
-0.075,0.008,0.973,1.221,2.258,2.014
-0.057,0.034,0.971,1.221,1.892,2.441
-0.018,0.034,0.962,0.732,1.892,1.770
-0.079,-0.013,0.963,1.038,1.953,1.221
-0.138,-0.026,0.970,1.099,2.197,0.977
-0.135,-0.024,0.978,1.099,2.197,1.831
-0.100,0.019,0.972,1.221,1.526,2.014
-0.034,0.047,0.964,1.160,2.319,1.587
-0.040,0.008,0.970,0.732,2.136,2.014
-0.114,-0.031,0.973,1.099,1.587,1.465
-0.114,-0.026,0.959,1.343,1.282,1.343
-0.129,-0.010,0.969,0.977,1.953,1.465
-0.055,0.040,0.968,1.038,2.197,1.343
-0.022,0.033,0.962,1.343,2.380,1.404
-0.022,0.040,0.968,0.793,2.014,1.709
-0.077,-0.008,0.968,1.160,1.953,1.770
-0.133,-0.028,0.975,1.160,1.709,2.197
-0.091,0.019,0.973,0.854,1.709,1.892
-0.098,0.011,0.971,0.977,1.770,2.075
-0.033,0.047,0.962,0.610,2.014,1.404
-0.045,0.014,0.963,0.671,2.563,1.526
-0.032,0.019,0.971,1.099,2.258,1.648
-0.106,-0.024,0.971,1.282,1.404,1.465
-0.125,-0.015,0.976,0.793,1.343,1.648
-0.057,0.036,0.969,0.854,1.465,1.221
-0.068,0.034,0.970,0.671,1.587,1.160
-0.023,0.040,0.963,0.793,1.953,1.038
-0.075,-0.006,0.969,0.671,1.892,1.038
-0.135,-0.025,0.977,1.160,1.648,1.221
-0.133,-0.026,0.974,0.916,1.526,1.648
-0.103,0.012,0.977,0.793,1.221,1.648
-0.034,0.048,0.970,0.488,0.977,1.526
-0.042,0.019,0.963,0.793,0.732,1.587
-0.115,-0.024,0.966,0.793,0.916,1.343

-0.106,-0.024,0.960,0.671,1.160,1.587
-0.130,-0.016,0.968,0.793,1.648,1.587
-0.060,0.040,0.975,0.549,1.770,1.709
-0.022,0.035,0.994,1.221,1.587,1.526
-0.025,0.048,0.967,0.427,1.648,1.526
-0.077,-0.001,0.960,1.526,1.038,1.648
-0.149,-0.023,0.947,-2.014,1.282,1.404
-0.093,0.011,0.980,1.953,3.662,2.075
-0.096,0.011,0.999,1.282,2.747,1.038
-0.038,0.051,0.978,1.648,0.488,0.671
-0.053,0.019,0.953,2.136,0.061,0.854
-0.086,0.007,0.954,1.404,1.099,1.160
-0.072,0.007,0.965,0.793,2.075,1.282
-0.071,0.009,0.968,0.854,2.014,0.854
-0.078,0.013,0.967,0.977,1.587,1.099
-0.083,0.018,0.967,0.916,1.831,1.160
-0.084,0.016,0.970,0.610,1.709,1.648
-0.079,0.012,0.970,0.916,1.892,2.319
-0.077,0.006,0.964,0.732,1.526,2.014
-0.077,-0.002,0.964,0.122,2.014,1.831
-0.135,-0.034,0.975,0.122,2.014,1.953
-0.100,0.017,0.974,3.784,2.197,1.099
-0.029,0.048,0.956,2.991,2.930,1.221
-0.032,0.041,0.966,0.977,2.197,1.465
-0.039,0.020,0.969,0.549,2.014,1.343
-0.118,-0.028,0.967,1.648,1.587,1.282
-0.127,-0.010,0.974,0.610,1.526,1.770
-0.130,-0.012,0.972,0.732,1.587,1.404
-0.060,0.036,0.972,0.854,1.648,1.160
-0.018,0.038,0.963,0.427,1.282,1.160
-0.085,0.003,0.962,0.732,1.343,1.099
-0.080,0.014,0.963,1.038,1.465,1.587
-0.075,0.010,0.970,0.732,1.526,1.709
-0.080,0.012,0.968,0.793,1.343,1.587
-0.076,0.006,0.960,0.854,1.526,1.587
-0.073,0.002,0.963,0.366,1.587,1.160
-0.082,0.013,0.966,0.854,2.197,0.916
-0.080,0.016,0.967,0.732,1.526,1.648
-0.024,0.045,0.957,0.610,1.587,1.221
-0.062,0.004,0.963,0.854,2.441,1.404
-0.076,0.008,0.974,0.671,2.319,1.282
-0.075,0.011,0.972,1.038,1.648,1.343
-0.082,0.011,0.962,1.038,1.526,1.343
-0.081,0.010,0.965,0.854,1.770,0.793
-0.075,0.008,0.968,1.404,2.075,1.282
-0.074,0.010,0.971,1.160,1.831,1.160
-0.083,0.017,0.966,1.160,1.709,1.343
-0.080,0.017,0.969,1.343,2.136,1.709
-0.080,0.014,0.965,1.404,1.831,2.136
-0.073,0.006,0.970,1.404,2.075,2.197
-0.079,0.007,0.963,1.221,1.953,1.770
-0.082,0.008,0.967,0.732,2.380,1.953
-0.080,0.005,0.962,0.793,2.136,2.014
-0.081,0.013,0.979,0.793,2.502,1.953
-0.105,0.002,0.966,2.441,2.014,1.892
-0.112,0.004,0.972,1.099,1.404,2.258
-0.075,0.004,0.963,1.953,1.831,1.892
-0.074,0.002,0.965,1.404,2.258,1.587
-0.074,0.004,0.967,1.465,1.892,1.160
-0.073,0.006,0.966,1.282,2.136,0.977
-0.078,0.008,0.967,1.221,1.953,0.854
-0.078,0.009,0.970,1.160,2.258,0.977
-0.078,0.011,0.969,1.343,2.075,1.282
-0.075,0.009,0.970,1.099,1.892,1.770
-0.074,0.010,0.967,1.343,1.770,1.892
-0.016,0.038,0.958,1.282,2.075,1.648
-0.078,-0.013,0.961,0.549,2.502,1.709
-0.131,-0.024,0.977,1.526,2.380,1.770
-0.132,-0.027,0.973,1.160,2.197,1.160
-0.099,0.020,0.976,0.977,2.197,1.648
-0.030,0.046,0.964,1.221,1.709,1.770
-0.045,0.006,0.958,1.221,2.258,1.282
-0.027,0.011,0.966,0.793,2.441,1.648
-0.105,-0.030,0.970,1.160,1.953,1.343
-0.126,-0.011,0.974,0.977,1.526,1.282
-0.056,0.040,0.968,1.221,1.648,0.977
-0.016,0.031,0.962,0.977,1.770,1.404
-0.017,0.037,0.963,1.099,1.953,1.343
-0.075,-0.010,0.965,0.854,1.831,1.465
-0.136,-0.021,0.974,0.854,1.892,2.075
-0.089,0.020,0.980,0.977,1.648,2.197
-0.096,0.010,0.973,0.732,1.404,2.197
-0.051,0.028,0.964,0.671,1.282,1.648
-0.078,0.005,0.958,0.732,1.953,1.160
-0.079,0.007,0.966,0.610,2.319,1.465
-0.076,0.007,0.974,0.916,2.136,1.648
-0.076,0.007,0.976,0.854,1.770,1.648
-0.073,0.005,0.968,1.343,1.160,1.709
-0.076,0.006,0.966,1.038,1.465,1.282
-0.074,0.005,0.959,1.099,1.526,1.160
-0.079,0.008,0.966,0.793,2.075,0.916
-0.051,0.026,0.969,0.916,2.258,1.099
-0.022,0.023,0.966,1.038,1.831,1.404
-0.102,-0.022,0.969,1.221,1.648,1.282
-0.132,-0.016,0.977,1.221,1.709,1.404
-0.134,-0.021,0.974,1.526,1.831,1.648
-0.072,0.028,0.971,0.916,1.831,1.526
-0.014,0.042,0.969,0.916,2.075,1.526
-0.059,-0.006,0.965,1.099,1.526,1.587
-0.135,-0.028,0.973,0.732,1.526,1.343

-0.091,-0.013,0.973,1.160,1.709,1.770
-0.068,0.000,0.972,1.404,1.160,1.404
-0.075,0.003,0.967,0.854,1.526,0.671
-0.074,0.010,0.974,0.549,1.648,1.221
-0.076,0.006,0.969,1.160,0.793,0.854
-0.079,0.010,0.967,0.977,1.709,1.099
-0.075,0.010,0.967,1.038,2.014,1.404
-0.074,0.007,0.970,0.916,1.770,1.282
-0.076,0.006,0.969,1.282,1.465,1.465
-0.078,-0.008,0.970,1.160,1.404,1.221
-0.134,-0.027,0.972,1.099,1.709,1.343
-0.083,0.025,0.974,0.732,1.770,1.282
-0.017,0.047,0.966,1.038,1.831,1.709
-0.054,0.006,0.967,0.732,1.770,1.648
-0.047,0.006,0.964,1.221,1.465,1.770
-0.124,-0.030,0.964,1.099,1.343,2.197
-0.115,-0.002,0.977,0.671,1.587,2.319
-0.041,0.042,0.967,0.793,1.709,1.770
-0.033,0.028,0.937,-2.625,1.404,1.465
-0.023,0.035,0.973,2.686,2.686,1.465
-0.088,-0.020,0.970,2.136,1.892,1.831
-0.143,-0.021,0.979,-0.488,0.793,2.136
-0.077,0.013,0.967,1.709,1.221,1.648
-0.074,0.006,0.965,0.427,1.892,1.465
-0.071,0.004,0.966,0.977,1.648,1.099
-0.075,0.004,0.969,0.671,1.770,0.671
-0.081,0.009,0.970,1.038,1.404,0.244
-0.084,0.011,0.962,1.282,1.953,0.549
-0.079,0.013,0.974,0.671,2.319,0.977
-0.073,0.010,0.973,1.221,2.014,1.404
-0.073,0.006,0.970,1.221,1.465,1.404
-0.066,-0.004,0.969,1.038,1.282,1.038
-0.082,0.010,0.965,1.038,1.892,0.916
-0.081,0.011,0.966,1.160,2.258,1.160
-0.075,0.006,0.970,0.793,2.075,0.977
-0.080,0.012,0.972,1.099,2.380,1.099
-0.077,0.014,0.973,1.038,1.892,1.770
-0.078,0.007,0.964,0.977,1.160,1.465
-0.073,0.004,0.970,0.427,2.258,1.465
-0.072,0.007,0.972,0.793,2.136,0.793
-0.081,0.012,0.968,0.793,1.465,0.854
-0.083,0.013,0.967,0.916,1.526,1.587
-0.076,0.006,0.965,1.160,1.709,1.465
-0.068,0.005,0.968,0.732,2.014,1.404
-0.069,0.005,0.967,0.977,1.648,0.854
-0.077,0.011,0.964,1.099,1.892,0.732
-0.081,0.019,0.966,0.793,2.319,1.099
-0.040,0.041,0.967,0.610,2.014,2.319
-0.072,0.013,0.973,0.732,2.502,2.258
-0.074,0.006,0.969,0.977,2.197,1.892
-0.079,0.006,0.969,0.671,2.014,1.892
-0.080,0.007,0.970,0.916,2.075,1.770
-0.075,0.008,0.972,0.977,2.136,1.526
-0.075,0.006,0.973,1.038,1.770,1.160
-0.075,0.006,0.969,1.282,1.465,1.221
-0.077,0.012,0.963,0.916,1.221,1.282
-0.079,0.013,0.960,0.916,1.648,1.221
-0.075,0.009,0.967,0.488,2.502,1.526
-0.073,0.006,0.967,1.282,2.563,1.221
-0.074,0.010,0.974,0.671,2.441,1.160
-0.074,0.012,0.974,1.404,2.136,1.160
-0.077,0.012,0.969,1.587,1.709,1.526
-0.077,0.010,0.965,1.282,1.770,1.587
-0.077,0.011,0.969,1.282,2.136,1.648
-0.070,0.009,0.973,0.854,2.075,1.526
-0.068,0.005,0.974,0.977,1.648,1.404
-0.075,0.005,0.967,1.099,1.770,0.671
-0.077,0.013,0.972,0.671,1.831,1.282
-0.078,0.013,0.962,1.221,1.465,1.404
-0.079,0.013,0.967,0.732,2.258,1.770
-0.071,0.008,0.973,1.221,2.319,1.892
-0.071,0.008,0.971,0.854,1.892,1.709
-0.073,0.008,0.973,1.038,1.709,1.587
-0.078,0.009,0.972,1.099,1.526,1.465
-0.075,0.007,0.939,1.038,1.343,1.587
-0.076,0.008,0.971,0.854,1.404,1.526
-0.081,0.010,0.960,1.465,1.221,1.526
-0.080,0.013,0.961,0.854,2.075,1.709
-0.096,-0.002,0.969,0.916,2.686,1.953
-0.092,-0.022,0.971,1.282,2.930,2.380
-0.129,-0.023,0.980,0.671,2.136,2.319
-0.070,0.026,0.971,1.282,2.075,1.831
-0.019,0.038,0.962,0.916,2.319,1.831
-0.064,-0.007,0.999,1.038,2.136,1.526
-0.056,0.002,0.966,1.099,1.526,1.160
-0.124,-0.027,0.973,1.221,1.526,1.587
-0.072,0.009,0.970,1.160,1.343,1.343
-0.076,0.009,0.966,0.793,1.526,0.916
-0.074,0.008,0.999,0.793,1.953,1.160
-0.073,0.009,0.967,1.038,1.648,1.160
-0.074,0.008,0.968,0.916,1.770,1.221
-0.075,0.011,0.972,0.732,1.770,1.160
-0.079,0.011,0.968,1.465,1.648,1.404
-0.078,0.012,0.962,1.282,2.075,1.648
-0.075,0.016,0.960,-0.488,1.648,1.831
-0.074,0.011,0.975,2.441,1.892,1.648
-0.075,0.004,0.962,1.465,2.014,1.709
-0.077,0.010,0.974,0.122,2.380,1.831
-0.068,0.002,0.975,1.343,1.770,1.465
-0.072,0.002,0.973,0.977,1.648,1.099

-0.075,0.010,0.965,1.099,1.221,0.977
-0.081,0.010,0.962,1.221,1.404,0.549
-0.076,0.011,0.970,1.160,2.441,1.099
-0.072,0.010,0.975,0.671,2.258,1.038
-0.071,0.008,0.975,1.343,2.014,1.343
-0.072,0.007,0.970,1.038,1.343,1.526
-0.121,-0.005,0.970,1.038,1.465,0.916
-0.042,0.041,0.968,1.160,1.343,1.404
-0.050,0.038,0.967,1.038,1.587,1.892
-0.022,0.031,0.958,0.916,2.136,1.587
-0.090,-0.015,0.972,0.549,2.441,1.953
-0.130,-0.022,0.984,0.610,1.465,2.258
-0.132,-0.026,0.983,0.671,1.099,1.892
-0.085,0.021,0.972,0.549,0.427,1.526
-0.022,0.050,0.961,0.061,1.099,1.038
-0.056,0.012,0.961,0.183,1.343,1.099
-0.130,-0.021,0.974,0.427,1.343,1.892
-0.119,-0.023,0.966,1.465,1.343,2.197
-0.124,-0.003,0.971,0.732,1.648,2.258
-0.039,0.044,0.969,0.793,2.075,1.831
-0.013,0.027,0.967,0.549,2.258,1.770
-0.015,0.036,0.967,0.427,1.709,0.732
-0.086,-0.010,0.969,0.061,1.526,0.732
-0.086,0.010,0.971,0.793,1.587,1.404
-0.077,0.014,0.972,0.671,1.526,2.014
-0.073,0.012,0.972,0.549,0.854,2.258
-0.075,0.005,0.954,1.465,0.366,1.953
-0.086,0.005,0.943,0.671,1.404,0.916
-0.089,0.009,0.958,0.427,2.991,0.854
-0.081,0.012,0.985,0.854,3.052,0.977
-0.077,0.009,0.988,0.977,1.953,0.549
-0.077,0.013,0.981,1.831,0.916,0.854
-0.079,0.011,0.966,2.014,-0.427,0.854
-0.087,0.008,0.949,2.136,0.244,0.244
-0.082,0.009,0.962,1.404,1.770,0.549
-0.072,0.014,0.978,0.671,2.136,0.427
-0.071,0.013,0.985,0.854,1.038,0.244
-0.073,0.012,0.977,1.343,0.122,0.305
-0.075,0.010,0.968,1.282,0.061,0.061
-0.074,0.008,0.959,1.099,0.488,0.061
-0.082,0.012,0.956,1.099,1.099,0.122
-0.087,0.020,0.957,1.221,2.197,0.305
-0.086,0.021,0.964,1.160,2.808,1.465
-0.083,0.017,0.969,1.099,3.357,2.136
-0.081,0.011,0.974,1.038,2.930,2.380
-0.081,0.006,0.974,1.404,2.625,2.686
-0.077,0.004,0.978,1.099,2.502,2.625
-0.077,0.005,0.976,1.526,1.404,1.587
-0.074,0.005,0.970,1.770,0.732,1.099
-0.085,0.004,0.902,-0.427,0.366,0.793
-0.086,0.024,0.958,-1.343,1.953,1.404
-0.068,0.010,0.983,4.028,3.418,0.366
-0.050,0.037,0.975,2.319,1.709,0.793
-0.019,0.042,0.963,0.854,1.038,1.953
-0.081,-0.000,0.950,1.648,1.770,1.709
-0.078,0.016,0.964,0.671,2.686,1.648
-0.070,0.010,0.978,0.244,2.502,2.258
-0.066,0.006,0.970,0.854,1.587,1.953
-0.083,0.013,0.964,0.305,1.526,1.404
-0.083,0.018,0.966,0.671,2.014,2.014
-0.084,0.015,0.960,0.732,1.892,2.014
-0.076,0.012,0.971,0.488,3.113,2.625
-0.068,0.009,0.979,0.305,3.113,2.686
-0.137,-0.021,0.980,0.793,1.892,2.319
-0.112,0.016,0.971,1.160,1.465,2.319
-0.037,0.020,0.971,1.404,2.014,2.441
-0.038,0.045,0.962,1.343,2.441,2.075
-0.030,0.024,0.958,0.977,2.502,2.014
-0.107,-0.023,0.969,1.160,2.563,2.014
-0.133,-0.009,0.979,1.343,2.991,2.014
-0.061,-0.025,0.979,1.282,2.075,2.014
-0.067,0.032,0.980,0.916,1.953,1.709
-0.019,0.041,0.961,1.038,1.587,0.977
-0.069,-0.004,0.960,1.160,1.526,0.977
-0.137,-0.024,0.974,0.977,1.648,0.916
-0.125,-0.025,0.980,1.648,1.709,1.221
-0.105,0.009,0.977,1.831,1.038,1.282
-0.033,0.048,0.961,1.404,0.977,0.793
-0.032,0.028,0.951,1.404,1.587,1.038
-0.107,0.045,0.959,0.854,2.014,1.343
-0.102,-0.013,0.965,0.793,2.075,1.587
-0.078,0.013,0.968,1.343,2.319,2.014
-0.077,0.013,0.966,0.854,2.502,2.014
-0.075,0.011,0.967,0.671,2.686,2.441
-0.073,0.011,0.972,1.038,2.441,2.075
-0.074,0.007,0.965,1.160,1.831,1.892
-0.077,0.010,0.971,1.099,2.747,1.953
-0.073,0.010,0.973,1.404,1.831,2.380
-0.080,0.009,0.955,1.343,1.831,1.526
-0.072,0.009,0.971,0.671,2.869,1.770
-0.127,-0.022,0.978,0.854,2.380,1.770
-0.080,0.023,0.975,1.160,2.136,1.709
-0.021,0.042,0.961,1.282,1.953,1.404
-0.022,0.046,0.964,0.916,2.563,1.221
-0.042,0.007,0.967,0.671,2.319,1.587
-0.115,-0.028,0.974,0.916,2.197,1.831
-0.116,-0.000,0.981,0.671,2.258,1.831
-0.035,-0.004,0.982,0.793,1.648,1.892
-0.044,0.039,0.968,0.732,1.282,1.343
-0.069,0.009,0.963,0.916,1.648,1.160

-0.072,0.005,0.960,0.793,1.648,1.160
-0.076,0.011,0.964,0.061,2.136,1.038
-0.076,0.009,0.967,0.366,2.625,1.099
-0.071,0.009,0.975,0.122,2.808,1.282
-0.069,0.011,0.974,-0.122,2.136,1.465
-0.068,0.012,0.970,0.122,2.258,1.160
-0.072,0.015,0.966,-0.061,1.709,0.977
-0.074,0.020,0.954,-0.244,1.953,0.854
-0.024,0.059,0.954,-0.549,2.319,1.648
-0.030,0.022,0.966,-0.610,3.357,2.258
-0.111,-0.016,0.970,0.122,2.441,1.892
-0.115,-0.015,0.972,0.610,2.258,2.319
-0.123,-0.001,0.982,0.183,1.648,2.319
-0.055,0.042,0.973,1.099,1.221,1.648
-0.020,0.043,0.964,0.793,1.160,1.282
-0.074,-0.004,0.967,0.977,1.038,2.075
-0.127,-0.022,0.957,0.732,0.244,1.160
-0.134,-0.022,0.962,1.221,0.977,0.671
-0.089,0.027,0.967,0.854,1.343,0.916
-0.018,0.065,0.969,0.854,1.831,0.610
-0.044,0.029,0.963,1.221,1.526,1.160
-0.126,0.047,0.960,1.465,1.160,1.343
-0.115,-0.018,0.961,1.343,1.343,1.831
-0.121,-0.002,0.968,1.038,2.014,2.075
-0.062,0.028,0.969,1.221,2.319,1.953
-0.065,0.020,0.972,0.671,2.502,1.648
-0.067,0.020,0.972,1.160,1.892,1.404
-0.074,0.019,0.969,1.526,1.648,1.709
-0.076,0.021,0.960,1.465,1.587,1.892
-0.078,0.017,0.962,1.221,2.136,1.770
-0.075,0.017,0.969,1.099,2.502,2.380
-0.066,0.014,0.977,1.099,2.014,2.380
-0.068,0.012,0.974,1.526,1.282,1.770
-0.072,0.010,0.966,1.404,0.793,1.343
-0.073,0.012,0.957,1.282,1.343,1.038
-0.074,0.016,0.961,1.099,1.465,0.977
-0.072,0.017,0.964,1.343,1.709,0.916
-0.071,0.018,0.970,1.343,1.587,1.221
-0.084,0.028,0.960,-2.747,0.732,0.061
-0.084,0.027,0.977,5.676,3.845,0.916
-0.073,0.017,0.968,1.587,2.502,2.258
-0.070,0.022,0.981,0.244,1.221,2.136
-0.072,0.008,0.960,1.526,1.343,1.526
-0.070,0.017,0.964,0.854,1.343,1.587
-0.071,0.009,0.957,1.648,1.282,1.465
-0.074,0.011,0.965,1.099,1.892,1.038
-0.068,0.014,0.974,1.099,2.136,0.977
-0.071,0.019,0.977,0.854,1.099,0.916
-0.079,0.023,0.969,1.099,0.488,1.709
-0.078,0.016,0.961,1.221,0.671,1.770
-0.070,0.012,0.964,0.732,0.732,1.648
-0.066,0.009,0.957,0.854,0.854,1.343
-0.076,0.018,0.956,0.488,1.221,0.732
-0.080,0.023,0.964,0.427,2.319,1.038
-0.080,0.023,0.974,0.427,2.319,1.892
-0.076,0.018,0.974,0.916,1.770,2.441
-0.075,0.010,0.969,1.038,1.404,2.747
-0.076,0.008,0.970,0.488,1.099,2.502
-0.080,0.011,0.965,1.160,0.977,1.831
-0.084,0.014,0.961,1.038,1.648,1.404
-0.092,0.036,0.964,-5.371,1.465,0.549
-0.064,0.010,0.980,3.662,3.296,1.343
-0.063,0.008,0.987,1.099,2.747,1.160
-0.089,0.023,0.973,1.892,0.854,-0.061
-0.093,0.029,0.965,3.052,1.282,0.366
-0.087,0.026,0.960,2.197,1.343,1.343
-0.072,0.016,0.962,1.099,1.465,2.380
-0.068,0.012,0.966,0.916,1.526,1.892
-0.081,0.017,0.955,0.122,2.197,1.282
-0.078,0.009,0.952,2.075,3.357,0.427
-0.076,0.025,0.977,-0.549,3.967,1.160
-0.072,0.024,0.988,1.709,1.587,1.831
-0.079,0.016,0.977,0.427,0.916,2.319
-0.072,0.010,0.978,1.038,0.916,2.808
-0.066,0.008,0.980,1.282,0.916,2.319
-0.111,0.056,0.943,-17.700,-2.441,-2.258
-0.079,0.032,0.957,3.357,4.395,0.122
-0.039,0.016,0.990,3.296,7.263,0.244
-0.119,-0.013,1.014,2.136,3.967,-0.427
-0.142,-0.003,0.981,2.441,0.854,-0.488
-0.142,0.029,0.964,1.892,0.061,2.197
-0.045,0.072,0.961,1.404,0.610,3.784
-0.037,0.045,0.958,1.953,2.258,3.479
-0.006,0.033,0.955,0.977,2.014,1.770
-0.088,-0.014,0.957,0.427,2.563,0.122
-0.143,-0.006,0.978,0.549,2.808,0.793
-0.140,-0.007,0.984,1.587,2.380,2.075
-0.088,0.039,0.980,1.892,1.221,2.441
-0.018,0.060,0.962,1.221,0.916,2.319
-0.020,0.057,0.957,1.160,1.587,1.465
-0.038,0.018,0.952,0.671,2.136,0.732
-0.120,-0.020,0.963,0.977,2.136,0.732
-0.123,0.010,0.979,1.038,2.319,1.160
-0.130,0.005,0.976,1.221,1.831,1.709
-0.051,0.058,0.978,1.221,1.770,2.014
-0.017,0.048,0.963,1.587,1.831,1.709
-0.082,-0.010,0.957,1.892,1.587,1.587
-0.080,0.003,0.970,2.930,2.441,1.038
-0.140,-0.009,0.989,6.714,3.418,1.404
-0.084,0.010,0.964,2.686,1.099,1.892

-0.074,0.018,0.963,0.366,0.854,1.648
-0.068,0.008,0.953,2.075,2.075,1.465
-0.077,0.016,0.961,0.305,2.441,0.916
-0.072,0.019,0.971,1.099,2.930,1.160
-0.071,0.015,0.981,0.732,2.563,1.404
-0.077,0.015,0.969,1.709,1.587,1.404
-0.080,0.016,0.964,1.343,1.648,1.709
-0.076,0.015,0.966,1.282,1.953,1.892
-0.072,0.012,0.968,1.038,1.892,2.075
-0.070,0.008,0.969,0.732,2.258,1.953
-0.072,0.012,0.970,1.099,2.441,1.526
-0.069,0.015,0.973,0.916,2.075,1.587
-0.076,0.014,0.969,1.282,1.404,1.404
-0.078,0.015,0.962,1.465,2.014,1.709
-0.074,0.015,0.970,0.854,2.563,2.014
-0.070,0.010,0.975,1.404,2.319,2.136
-0.070,0.007,0.975,1.221,1.892,1.953
-0.033,0.017,0.924,-1.831,-1.648,0.244
-0.084,0.022,0.975,-0.305,2.441,0.244
-0.079,0.014,0.967,2.075,2.808,2.625
-0.135,-0.018,0.986,0.732,2.075,3.235
-0.092,0.016,0.977,2.014,1.709,2.075
-0.098,0.008,0.974,0.793,1.099,1.038
-0.027,0.054,0.965,1.160,1.160,0.549
-0.039,0.025,0.955,1.099,1.770,0.488
-0.116,-0.021,0.959,1.221,2.136,0.916
-0.123,-0.019,0.969,0.977,2.808,1.465
-0.126,-0.009,0.980,1.404,2.380,1.831
-0.060,0.047,0.985,2.502,2.441,1.953
-0.019,0.048,0.976,3.174,2.441,1.953
-0.075,-0.010,0.960,2.258,0.854,1.343
-0.088,-0.002,0.961,0.916,0.854,1.709
-0.069,-0.003,0.956,1.404,1.282,1.160
-0.069,0.003,0.969,0.366,1.770,0.671
-0.070,0.010,0.971,1.221,1.160,0.366
-0.084,0.020,0.970,0.732,1.099,0.122
-0.081,0.023,0.966,1.221,1.587,1.160
-0.074,0.018,0.969,0.793,1.770,1.831
-0.073,0.012,0.971,1.038,1.587,2.136
-0.070,0.006,0.970,1.282,1.282,2.075
-0.059,-0.024,0.956,1.099,1.160,1.404
-0.091,0.026,0.963,-6.531,1.953,2.869
-0.069,0.017,0.965,0.854,3.479,1.831
-0.040,0.025,0.993,0.488,3.845,0.549
-0.034,0.031,0.984,1.404,1.282,1.160
-0.116,-0.019,0.973,2.991,0.916,0.732
-0.132,-0.006,0.969,2.136,0.793,1.892
-0.058,0.047,0.962,0.916,1.282,2.502
-0.063,0.045,0.979,3.052,2.380,2.197
-0.010,0.041,0.972,4.211,2.441,1.404
-0.074,-0.005,0.963,0.305,0.916,1.587
-0.084,0.027,0.956,1.709,1.343,0.916
-0.078,0.010,0.960,0.671,1.953,0.854
-0.073,0.012,0.969,0.732,2.197,0.793
-0.070,0.010,0.972,1.099,2.014,0.793
-0.073,0.012,0.974,0.732,1.648,0.427
-0.075,0.015,0.964,1.038,1.770,0.366
-0.076,0.016,0.970,0.793,2.075,0.549
-0.074,0.017,0.974,1.282,1.770,1.038
-0.072,0.014,0.970,0.916,1.465,1.343
-0.072,0.014,0.976,0.916,0.916,1.709
-0.042,0.001,0.939,0.977,-0.183,1.404
-0.086,0.021,0.955,-3.479,1.953,0.122
-0.081,0.022,0.957,1.404,3.174,2.258
-0.083,0.027,0.985,-0.183,2.991,3.906
-0.028,0.056,0.980,2.075,2.991,1.709
-0.057,0.020,0.978,2.808,2.502,1.282
-0.125,-0.028,0.972,3.113,1.099,2.258
-0.114,-0.037,0.943,0.916,0.549,1.648
-0.061,0.005,0.960,0.366,1.709,0.549
-0.068,0.013,0.966,0.671,2.136,-0.122
-0.079,0.021,0.969,0.854,2.075,0.854
-0.083,0.022,0.973,1.404,2.319,1.343
-0.075,0.018,0.977,1.282,1.648,1.831
-0.070,0.012,0.971,1.587,1.221,2.075
-0.074,0.011,0.963,1.404,0.854,1.831
-0.078,0.015,0.961,0.793,1.892,1.892
-0.075,0.014,0.967,0.610,2.197,2.197
-0.075,0.014,0.974,0.305,2.380,2.014
-0.098,0.037,0.979,-6.775,1.343,0.732
-0.075,0.013,0.972,5.371,3.418,1.160
-0.069,0.013,0.985,1.648,2.258,1.831
-0.137,-0.027,0.976,0.977,0.916,2.502
-0.073,0.010,0.965,1.953,0.671,1.892
-0.069,0.007,0.963,0.732,1.282,1.587
-0.069,0.010,0.964,0.916,1.526,1.038
-0.074,0.010,0.968,0.610,1.282,0.732
-0.066,0.005,0.908,-3.845,-0.122,-0.366
-0.082,0.025,0.985,1.465,3.784,0.732
-0.068,0.014,0.992,5.493,4.150,2.258
-0.095,0.013,0.984,-0.061,1.099,2.991
-0.075,0.011,0.963,2.319,0.732,1.953
-0.071,0.007,0.959,0.854,1.465,2.075
-0.071,0.007,0.968,0.916,1.709,1.404
-0.074,0.010,0.966,1.587,1.587,0.916
-0.078,0.011,0.947,-2.930,0.916,0.305
-0.077,0.023,0.990,4.211,3.357,1.404
-0.067,0.012,0.975,2.991,2.563,2.625
-0.052,0.019,0.978,-0.244,0.977,2.441
-0.078,0.007,0.961,2.502,1.892,2.014

-0.068,0.010,0.967,0.732,1.221,2.136
-0.079,0.011,0.957,1.587,1.465,1.099
-0.075,0.010,0.968,1.038,2.258,0.916
-0.084,0.010,0.926,-1.648,0.366,-0.610
-0.073,0.020,0.999,4.761,3.479,1.099
-0.071,0.013,0.971,4.089,2.319,2.441
-0.075,0.008,0.977,-1.221,0.854,2.808
-0.072,0.002,0.959,3.052,1.953,2.625
-0.065,0.003,0.966,0.061,1.526,2.136
-0.071,0.007,0.959,1.831,1.587,1.221
-0.057,0.008,0.932,1.099,1.770,0.732
-0.087,0.032,0.971,-3.967,2.991,-0.305
-0.079,0.016,0.984,6.897,3.845,2.441
-0.135,-0.014,0.988,-1.953,1.221,3.784
-0.083,0.009,0.971,2.441,0.793,2.930
-0.070,-0.002,0.963,1.343,1.770,3.540
-0.063,-0.000,0.972,1.465,0.977,2.014
-0.088,0.001,0.913,-1.770,-2.686,-1.221
-0.093,0.024,0.980,-2.014,3.296,0.671
-0.126,-0.021,0.991,8.179,5.432,2.991
-0.135,-0.011,1.004,0.122,-1.770,0.366
-0.085,0.023,0.978,2.441,-0.793,1.465
-0.085,0.006,0.952,2.686,0.305,2.502
-0.072,-0.001,0.954,0.854,1.709,2.441
-0.059,-0.005,0.958,1.526,1.831,1.404
-0.092,0.027,0.928,-7.385,-0.977,-2.808
-0.082,0.022,1.004,8.179,6.104,1.770
-0.050,0.037,0.993,2.136,3.479,2.319
-0.098,0.029,0.988,-0.793,0.427,1.465
-0.081,-0.029,0.958,2.869,1.526,3.052
-0.065,-0.003,0.967,0.305,1.404,2.625
-0.062,-0.007,0.961,1.709,1.221,0.977
-0.078,-0.001,0.960,0.671,1.282,-0.549
-0.109,0.045,0.957,-7.202,1.160,-2.869
-0.076,0.018,0.990,3.296,3.601,0.610
-0.061,0.005,0.993,0.732,3.174,2.258
-0.133,-0.018,0.998,-0.183,0.793,1.770
-0.146,-0.019,0.957,1.587,-0.061,0.183
-0.115,0.025,0.962,0.732,0.000,1.648
-0.026,0.054,0.954,1.892,0.916,1.892
-0.031,0.043,0.964,0.610,2.258,1.221
-0.023,0.022,0.969,0.366,2.930,1.099
-0.108,-0.020,0.977,1.038,2.563,1.404
-0.105,-0.010,0.980,2.686,2.136,2.075
-0.135,-0.022,0.969,3.113,1.221,2.747
-0.073,0.032,0.960,0.488,0.854,2.991
-0.068,-0.002,0.956,1.343,1.709,2.319
-0.073,0.001,0.965,0.305,2.319,1.038
-0.078,0.006,0.974,0.488,2.502,0.854
-0.080,0.017,0.979,0.671,2.197,0.732
-0.082,0.018,0.978,1.282,1.160,1.404
-0.081,0.015,0.966,1.343,0.732,1.709
-0.078,0.009,0.962,1.160,0.977,1.831
-0.071,0.004,0.966,0.854,1.343,1.587
-0.071,0.005,0.969,0.671,1.160,0.732
-0.096,0.027,0.946,-4.028,-1.038,-1.221
-0.086,0.021,0.974,1.709,2.625,0.549
-0.030,0.036,0.972,1.282,2.747,2.075
-0.072,0.053,0.972,0.610,1.526,1.526
-0.065,-0.001,0.958,1.099,1.770,0.916
-0.139,-0.022,0.972,0.549,1.587,1.221
-0.111,0.021,0.972,1.587,1.892,1.709
-0.032,0.057,0.969,1.343,2.075,1.953
-0.040,0.025,0.971,2.686,2.502,2.014
-0.024,0.025,0.970,2.930,1.648,1.892
-0.107,-0.031,0.954,0.732,0.549,1.831
-0.134,-0.020,0.963,1.282,1.282,1.770
-0.073,0.002,0.950,0.793,1.770,0.549
-0.078,0.008,0.968,0.488,2.991,0.610
-0.070,0.016,0.983,0.793,2.747,0.671
-0.078,0.018,0.974,1.343,1.526,0.549
-0.086,0.020,0.970,1.160,1.160,1.831
-0.081,0.012,0.967,1.465,1.648,2.136
-0.071,0.007,0.967,1.038,1.648,2.380
-0.076,0.001,0.943,-0.793,0.732,2.014
-0.080,0.007,0.967,-0.122,2.563,1.221
-0.076,0.015,0.973,1.587,3.601,1.892
-0.036,0.034,0.981,1.221,2.502,2.014
-0.119,-0.015,0.976,2.502,2.197,1.587
-0.133,-0.015,0.976,1.953,1.648,2.380
-0.057,0.039,0.971,0.977,0.916,2.686
-0.074,0.003,0.958,0.671,1.709,2.136
-0.074,0.004,0.967,0.305,2.380,1.404
-0.078,0.010,0.970,1.038,2.441,0.916
-0.079,0.015,0.972,0.854,2.136,1.221
-0.079,0.014,0.972,1.038,1.465,1.465
-0.081,0.011,0.963,1.465,1.709,1.648
-0.073,0.008,0.970,0.793,1.953,1.709
-0.067,0.004,0.977,1.038,1.648,1.404
-0.072,0.006,0.970,1.221,0.732,0.793
-0.092,0.028,0.945,-2.563,-0.488,-1.404
-0.088,0.022,0.967,0.244,2.625,1.343
-0.083,-0.002,0.974,1.465,3.601,2.808
-0.093,-0.005,0.986,1.587,2.563,1.648
-0.142,-0.015,0.987,4.211,2.075,1.038
-0.081,0.031,0.967,1.221,0.671,2.563
-0.066,0.003,0.962,1.770,1.465,1.892
-0.070,-0.000,0.959,0.854,2.136,0.610
-0.078,0.009,0.969,0.610,2.563,0.488
-0.079,0.014,0.969,0.854,2.075,0.732

-0.083,0.021,0.971,1.221,2.380,0.977
-0.076,0.016,0.977,1.282,2.197,1.709
-0.073,0.013,0.977,1.343,1.526,1.953
-0.074,0.009,0.940,1.343,0.732,2.136
-0.067,-0.006,0.936,1.343,0.427,1.831
-0.079,0.004,0.955,-2.441,2.197,-0.244
-0.080,0.009,0.969,1.343,3.662,1.587
-0.127,-0.028,0.988,0.916,3.662,2.319
-0.137,-0.006,0.996,4.089,2.991,1.282
-0.117,0.007,0.982,1.770,0.610,3.723
-0.067,0.002,0.958,2.075,0.488,2.930
-0.064,-0.002,0.954,0.977,1.404,2.014
-0.074,0.001,0.964,0.366,1.953,1.282
-0.078,0.006,0.964,0.916,2.380,1.038
-0.080,0.016,0.980,0.610,2.258,0.916
-0.083,0.021,0.979,1.465,1.526,1.343
-0.081,0.014,0.970,1.648,1.099,2.014
-0.045,-0.008,0.950,-0.183,-0.977,2.014
-0.083,0.001,0.972,-1.038,3.052,0.488
-0.073,0.002,0.978,3.052,3.906,2.258
-0.135,-0.020,0.993,2.075,2.991,1.648
-0.141,-0.030,0.962,1.648,0.916,0.305
-0.080,0.017,0.967,1.282,1.343,1.282
-0.071,0.009,0.970,1.221,1.953,1.648
-0.070,0.006,0.970,1.038,1.831,1.709
-0.074,0.005,0.963,1.282,1.648,1.587
-0.076,0.008,0.965,0.977,2.136,1.282
-0.079,0.012,0.971,0.977,2.319,1.160
-0.076,0.013,0.982,0.977,1.953,1.709
-0.070,0.006,0.979,1.465,1.343,2.075
-0.076,0.000,0.974,0.977,0.732,1.526
-0.071,-0.009,0.919,-0.183,-1.099,-1.160
-0.091,0.009,0.973,0.977,2.075,0.244
-0.094,-0.010,0.972,1.709,3.906,2.136
-0.098,0.018,0.997,-0.671,2.686,1.526
-0.031,0.056,0.981,2.014,1.587,0.061
-0.047,0.053,0.975,0.671,0.488,0.854
-0.033,0.024,0.958,1.770,0.427,1.343
-0.109,-0.030,0.957,1.099,1.160,1.709
-0.130,-0.011,0.964,0.549,1.465,1.343
-0.056,0.044,0.968,0.244,2.258,1.282
-0.023,0.044,0.980,0.854,2.747,2.014
-0.015,0.046,0.974,1.343,2.136,2.563
-0.073,-0.009,0.964,1.038,1.831,2.319
-0.136,-0.028,0.973,1.282,1.404,2.075
-0.099,0.021,0.970,1.160,1.404,1.160
-0.110,0.018,0.975,0.916,2.014,1.587
-0.027,0.053,0.976,0.977,2.136,1.648
-0.037,0.020,0.968,1.221,1.465,1.160
-0.120,-0.023,0.965,1.221,1.160,1.587
-0.135,-0.001,0.966,1.648,1.770,2.014
-0.136,-0.006,0.980,3.845,2.625,2.380
-0.058,0.030,0.964,0.671,0.610,2.014
-0.017,0.039,0.962,0.305,1.343,1.526
-0.077,0.000,0.953,1.526,1.892,0.793
-0.078,0.010,0.973,0.305,2.380,0.854
-0.077,0.011,0.971,1.404,2.197,1.038
-0.080,0.015,0.977,0.549,1.587,1.160
-0.078,0.014,0.970,1.526,1.343,1.160
-0.080,0.011,0.966,1.404,1.160,1.587
-0.082,0.009,0.964,1.404,1.953,1.404
-0.073,0.009,0.971,0.732,2.136,1.770
-0.075,0.006,0.972,0.793,1.709,1.160
-0.054,-0.007,0.962,1.099,1.587,1.282
-0.090,0.031,0.970,-2.747,2.136,0.305
-0.089,0.014,0.953,2.441,2.625,1.038
-0.128,-0.011,0.986,-0.183,3.296,2.563
-0.133,-0.010,0.987,1.465,2.014,1.465
-0.069,0.042,0.973,1.221,1.038,1.465
-0.023,0.043,0.958,1.404,0.977,1.526
-0.076,-0.011,0.954,1.160,1.648,1.526
-0.137,-0.027,0.972,2.075,2.563,1.343
-0.131,-0.039,0.966,1.953,2.136,1.587
-0.103,0.021,0.977,-0.061,2.258,2.197
-0.074,0.016,0.973,1.831,2.075,1.831
-0.079,0.011,0.969,0.916,2.380,2.075
-0.072,0.007,0.975,1.099,1.953,2.319
-0.076,0.007,0.974,0.732,1.404,1.770
-0.083,0.013,0.969,1.343,1.221,2.014
-0.083,0.014,0.971,1.282,1.526,2.319
-0.080,0.009,0.970,1.343,1.343,2.563
-0.078,0.003,0.970,1.160,1.526,2.319
-0.086,0.009,0.903,-2.380,0.244,2.197
-0.076,0.008,0.962,2.747,2.991,0.977
-0.094,-0.002,0.985,0.977,3.845,0.610
-0.106,0.018,0.997,4.089,1.953,0.305
-0.025,0.039,0.965,2.991,1.099,1.282
-0.040,0.015,0.960,0.549,1.038,0.671
-0.081,0.010,0.956,1.709,1.953,0.122
-0.077,0.014,0.966,0.427,2.502,0.916
-0.079,0.013,0.968,1.099,2.502,0.916
-0.077,0.014,0.974,0.916,2.563,1.282
-0.074,0.012,0.976,1.099,1.770,1.221
-0.077,0.008,0.965,1.221,1.526,0.977
-0.079,0.012,0.966,1.160,2.319,1.587
-0.081,0.011,0.967,0.854,1.709,1.526
-0.078,0.008,0.969,1.282,2.441,1.892
-0.088,-0.005,0.925,-0.916,-1.648,0.793
-0.086,0.016,0.988,-1.282,4.272,0.977
-0.030,0.021,0.980,3.723,4.333,4.150

-0.078,-0.011,0.996,2.197,2.686,4.089
-0.076,-0.022,0.961,3.357,0.305,0.244
-0.090,-0.010,0.958,0.916,0.366,1.465
-0.073,0.003,0.954,1.831,1.038,1.587
-0.073,0.008,0.962,0.610,2.258,1.099
-0.071,0.007,0.974,1.221,2.319,1.282
-0.076,0.012,0.977,1.282,1.831,1.709
-0.074,0.010,0.971,1.587,1.404,1.648
-0.086,0.013,0.966,1.343,1.526,1.648
-0.083,0.007,0.968,1.160,2.075,2.441
-0.089,0.019,0.964,-4.272,2.625,2.075
-0.066,0.006,0.993,2.441,3.479,0.977
-0.081,-0.013,0.986,3.784,2.319,0.671
-0.142,-0.029,0.970,0.244,0.793,1.953
-0.084,0.005,0.958,1.892,1.526,0.610
-0.073,0.008,0.969,0.610,2.136,1.282
-0.072,0.008,0.970,1.282,1.770,1.221
-0.073,0.005,0.967,1.038,1.831,1.160
-0.077,0.010,0.972,0.732,1.953,0.793
-0.078,0.011,0.969,1.099,1.770,1.099
-0.075,0.010,0.968,1.099,1.953,1.404
-0.074,0.009,0.971,0.793,1.831,1.465
-0.072,0.007,0.970,1.221,1.831,1.404
-0.074,0.006,0.970,0.732,1.831,1.343
-0.080,-0.004,0.936,-0.061,-0.916,0.977
-0.085,0.005,0.974,-0.610,3.418,0.305
-0.079,0.012,0.981,3.723,4.578,2.319
-0.006,0.043,0.987,1.709,2.625,3.174
-0.095,-0.012,0.964,0.732,0.305,1.099
-0.075,0.005,0.958,1.709,1.282,2.136
-0.072,0.003,0.960,1.038,2.136,1.892
-0.071,0.003,0.963,1.282,2.258,1.465
-0.070,0.006,0.973,1.160,2.319,1.526
-0.073,0.008,0.975,1.648,2.014,1.282
-0.076,0.010,0.975,1.221,1.465,1.343
-0.078,0.004,0.974,1.160,1.587,2.075
-0.080,0.003,0.971,1.404,1.587,2.136
-0.073,-0.002,0.972,1.404,1.587,2.258
-0.101,0.035,0.927,-10.864,-3.418,-1.282
-0.075,0.023,0.992,2.075,3.784,0.305
-0.062,0.008,0.995,4.883,3.601,1.282
-0.089,0.021,0.975,-0.305,-0.488,0.793
-0.092,0.017,0.961,1.282,0.061,1.648
-0.080,0.010,0.958,1.221,1.465,2.319
-0.068,0.004,0.965,0.610,1.648,2.380
-0.068,-0.002,0.963,0.854,1.648,1.770
-0.077,0.004,0.964,0.244,2.014,1.160
-0.082,0.012,0.971,0.488,2.075,0.244
-0.078,0.016,0.977,0.671,1.892,0.732
-0.080,0.014,0.970,1.038,1.160,1.587
-0.076,0.009,0.967,0.549,1.404,1.892
-0.076,0.008,0.966,0.610,1.770,1.892
-0.074,0.005,0.965,0.671,1.953,1.770
-0.075,0.005,0.967,0.488,2.014,1.160
-0.077,0.007,0.968,0.977,1.953,0.793
-0.078,0.010,0.970,0.671,1.648,0.793
-0.081,0.010,0.970,1.099,1.709,0.854
-0.079,0.012,0.973,1.160,1.709,1.221
-0.065,0.028,0.965,0.061,1.709,0.610
-0.077,0.014,0.969,0.916,2.380,1.587
-0.075,0.014,0.965,0.305,1.099,1.648
-0.082,0.010,0.956,0.977,1.892,1.343
-0.073,0.008,0.973,0.183,2.747,1.221
-0.070,0.010,0.980,0.793,2.197,0.916
-0.076,0.011,0.970,1.282,1.465,1.160
-0.084,0.014,0.967,1.221,1.282,1.160
-0.079,0.009,0.962,1.526,1.770,1.221
-0.073,0.007,0.968,0.854,2.136,1.160
-0.072,0.009,0.971,1.099,1.709,1.038
-0.079,0.016,0.968,0.793,1.770,1.038
-0.078,0.018,0.967,1.099,1.953,1.343
-0.080,0.016,0.969,1.160,2.197,1.587
-0.075,0.013,0.970,1.160,1.831,2.014
-0.079,0.012,0.962,0.793,1.770,1.953
-0.079,0.011,0.971,0.549,2.075,2.258
-0.078,0.011,0.970,0.977,2.258,1.770
-0.076,0.004,0.963,0.793,2.014,1.770
-0.075,-0.003,0.962,0.732,2.136,1.343
-0.074,-0.003,0.969,0.000,2.563,0.610
-0.073,0.001,0.975,0.244,2.380,-0.916
-0.072,0.010,0.972,-0.366,2.197,-1.343
-0.074,0.014,0.967,0.061,2.197,-1.343
-0.076,0.015,0.968,0.610,2.686,-1.160
-0.074,0.022,0.978,0.183,1.770,-1.953
-0.071,0.029,0.971,0.427,1.160,-1.709
-0.081,0.024,0.959,1.465,1.709,-0.488
-0.079,0.020,0.944,1.770,2.563,0.183
-0.079,0.027,0.954,-0.488,5.676,0.183
-0.068,0.029,0.982,0.366,5.127,-0.183
-0.072,0.032,0.985,1.343,4.456,0.610
-0.081,0.037,0.982,1.038,2.441,2.075
-0.075,0.025,0.971,2.563,2.014,2.502
-0.066,0.017,0.967,1.160,2.258,3.052
-0.059,0.020,0.970,0.977,2.441,3.418
-0.066,0.012,0.966,1.648,1.831,3.235
-0.072,0.010,0.958,1.770,2.197,3.662
-0.062,0.009,0.973,2.625,2.625,2.991
-0.059,0.000,0.969,3.235,1.892,2.197
-0.063,-0.005,0.958,2.441,1.465,1.282
-0.008,0.035,0.965,1.892,2.258,0.977

-0.067,0.004,0.979,2.441,3.296,0.549
-0.060,0.002,0.993,2.258,2.686,-0.122
-0.058,0.009,0.982,2.991,0.061,-0.427
-0.070,0.019,0.970,1.892,-0.549,-0.610
-0.082,0.029,0.966,1.648,0.183,0.549
-0.073,0.026,0.966,2.014,0.854,3.052
-0.060,0.007,0.960,1.282,1.160,4.333
-0.135,-0.042,0.947,1.770,1.587,4.944
-0.090,-0.006,0.961,0.427,2.808,4.883
-0.009,0.033,0.979,0.244,3.174,3.113
-0.016,0.041,0.997,0.854,2.197,1.953
-0.020,0.020,0.984,1.648,0.854,1.587
-0.110,-0.034,0.961,1.831,-0.244,1.770
-0.139,-0.021,0.960,0.732,0.671,1.770
-0.140,-0.029,0.962,1.221,1.526,2.441
-0.061,0.034,0.972,1.099,1.770,2.075
-0.011,0.048,0.968,0.732,2.075,1.953
-0.073,-0.009,0.972,0.793,2.380,2.380
-0.060,-0.006,0.972,0.854,2.258,2.502
-0.122,-0.048,0.973,0.854,1.404,2.075
-0.098,-0.003,0.975,0.916,1.221,0.610
-0.104,-0.001,0.968,1.160,1.465,1.221
-0.027,0.051,0.961,0.793,1.038,0.732
-0.030,0.022,0.954,0.793,2.563,0.488
-0.102,-0.033,0.965,0.061,2.991,1.099
-0.093,-0.025,0.976,0.977,2.136,0.732
-0.132,-0.027,0.972,1.099,1.404,1.099
-0.064,0.038,0.974,1.343,1.221,1.160
-0.010,0.052,0.969,0.549,1.587,1.343
-0.068,0.004,0.966,0.183,1.526,1.770
-0.073,0.012,0.973,0.305,1.526,1.648
-0.073,0.013,0.968,0.305,1.587,1.831
-0.076,0.011,0.966,0.183,1.587,2.197
-0.075,0.007,0.966,0.427,2.258,2.502
-0.069,0.004,0.970,0.305,2.197,1.953
-0.075,0.002,0.967,0.916,1.892,1.465
-0.077,0.004,0.972,0.305,2.136,1.587
-0.071,0.006,0.975,1.282,2.197,1.038
-0.069,0.006,0.978,0.793,1.160,0.732
-0.072,0.011,0.970,1.038,0.732,0.549
-0.071,0.010,0.965,1.038,0.916,0.854
-0.074,0.013,0.963,0.488,1.465,0.793
-0.073,0.016,0.963,0.671,1.892,0.854
-0.071,0.015,0.966,0.488,2.075,1.160
-0.069,0.014,0.967,0.610,2.075,1.343
-0.070,0.014,0.973,0.977,1.892,1.587
-0.072,0.011,0.972,1.099,1.831,1.648
-0.070,0.011,0.970,1.221,1.587,1.953
-0.072,0.014,0.966,0.549,1.465,1.770
-0.089,-0.017,0.961,1.099,1.709,1.831
-0.077,-0.014,0.963,0.610,1.953,1.770
-0.128,-0.039,0.963,0.916,1.648,1.709
-0.083,0.024,0.977,0.671,1.709,0.916
-0.014,0.063,0.980,1.038,1.892,1.465
-0.019,0.056,0.967,1.343,1.038,1.282
-0.041,0.016,0.957,1.160,2.258,1.099
-0.114,-0.035,0.965,0.671,2.747,1.404
-0.111,-0.008,0.979,1.038,2.136,1.221
-0.129,-0.011,0.970,1.160,1.038,1.343
-0.049,0.047,0.975,1.587,1.282,1.526
-0.054,0.027,0.971,0.854,1.526,1.587
-0.066,0.007,0.970,0.854,1.465,1.099
-0.074,0.011,0.966,0.732,1.465,0.916
-0.075,0.018,0.968,0.671,2.136,1.282
-0.074,0.013,0.969,0.977,1.770,1.709
-0.074,0.012,0.970,0.610,2.075,2.075
-0.073,0.009,0.966,0.793,1.648,2.136
-0.073,0.008,0.969,0.488,2.136,2.014
-0.073,0.008,0.973,0.671,1.831,2.014
-0.074,0.009,0.969,1.099,2.014,1.587
-0.071,0.010,0.968,0.977,1.587,1.465
-0.073,0.009,0.968,1.160,1.343,1.465
-0.035,0.041,0.962,0.793,1.587,1.221
-0.015,0.042,0.964,0.671,1.892,1.038
-0.092,-0.018,0.955,0.854,2.136,0.977
-0.139,-0.025,0.962,0.916,2.380,1.343
-0.139,-0.026,0.970,0.732,2.502,1.648
-0.074,0.031,0.977,1.282,2.136,1.770
-0.006,0.065,0.976,0.610,2.014,1.648
-0.045,0.009,0.977,1.099,1.770,1.831
-0.043,0.015,0.966,0.916,2.075,1.404
-0.066,0.008,0.968,0.488,1.831,1.282
-0.070,0.011,0.969,0.854,1.831,0.854
-0.073,0.018,0.974,0.793,1.587,1.343
-0.077,0.016,0.962,1.160,0.854,1.282
-0.072,0.012,0.962,1.038,2.441,1.648
-0.064,0.012,0.975,0.244,2.808,1.648
-0.066,0.012,0.974,1.099,1.831,1.221
-0.071,0.013,0.968,1.221,1.465,1.465
-0.074,0.015,0.966,1.038,1.587,1.282
-0.071,0.009,0.971,1.160,1.770,1.465
-0.068,0.007,0.969,1.282,1.648,1.404
-0.113,-0.016,0.973,1.038,1.587,1.160
-0.125,-0.010,0.971,1.099,1.709,1.770
-0.047,0.050,0.974,1.038,1.648,2.075
-0.013,0.049,0.970,0.610,2.197,1.953
-0.006,0.053,0.972,0.488,2.014,1.526
-0.072,-0.004,0.961,0.610,2.075,1.282
-0.090,-0.004,0.959,0.732,2.136,1.831
-0.074,0.011,0.969,0.916,2.319,1.953

-0.070,0.012,0.975,0.610,1.953,1.770
-0.067,0.008,0.969,0.977,1.343,1.709
-0.069,0.010,0.967,0.854,1.282,1.404
-0.070,0.009,0.964,0.854,1.770,1.282
-0.070,0.012,0.970,0.610,1.892,1.038
-0.070,0.016,0.970,1.160,1.526,1.343
-0.073,0.012,0.967,1.038,1.770,1.221
-0.074,0.014,0.972,0.854,1.404,1.343
-0.067,0.010,0.966,1.526,1.709,1.526
-0.068,0.011,0.969,0.854,1.587,1.404
-0.019,0.049,0.961,1.343,1.648,0.916
-0.037,0.022,0.959,1.160,2.319,0.916
-0.069,0.019,0.975,0.916,2.258,1.221
-0.064,0.009,0.970,1.404,1.831,1.282
-0.070,0.011,0.973,0.732,2.319,1.038
-0.070,0.015,0.968,1.343,1.526,1.221
-0.076,0.016,0.965,0.671,1.770,0.854
-0.072,0.015,0.973,0.854,2.319,1.099
-0.064,0.012,0.973,0.977,2.197,1.404
-0.077,-0.009,0.968,1.160,1.648,1.404
-0.073,0.008,0.964,1.343,1.526,1.587
-0.070,0.012,0.963,1.465,1.648,1.221
-0.068,0.011,0.967,0.793,1.587,1.526
-0.067,0.012,0.968,0.916,1.709,1.465
-0.071,0.015,0.969,1.038,2.014,1.526
-0.073,0.017,0.976,0.793,2.075,1.648
-0.070,0.013,0.969,1.770,1.404,2.197
-0.012,0.052,0.968,1.038,1.587,2.014
-0.070,0.010,0.965,0.916,1.953,1.587
-0.074,0.010,0.968,0.732,2.197,1.465
-0.073,0.009,0.973,0.793,2.502,1.404
-0.072,0.014,0.979,1.343,1.648,1.160
-0.072,0.010,0.976,1.038,1.038,1.282
-0.071,0.008,0.965,1.282,0.732,1.343
-0.089,-0.002,0.964,0.549,1.099,0.854
-0.124,0.001,0.959,0.671,1.343,0.549
-0.071,0.010,0.964,1.038,1.465,0.610
-0.075,0.017,0.965,0.977,1.404,0.671
-0.072,0.017,0.968,0.916,1.953,0.977
-0.071,0.017,0.971,0.854,1.587,1.465
-0.072,0.013,0.968,1.160,1.709,1.709
-0.071,0.012,0.968,1.038,1.709,1.892
-0.130,-0.026,0.968,0.916,1.709,1.831
-0.069,0.013,0.972,1.038,1.831,1.282
-0.070,0.012,0.970,1.221,2.014,1.526
-0.064,0.009,0.973,0.732,1.221,1.648
-0.076,0.013,0.966,0.916,1.343,0.793
-0.074,0.016,0.969,0.854,1.831,1.404
-0.036,0.025,0.960,0.793,1.160,1.343
-0.115,-0.033,0.958,1.343,1.953,1.282
-0.072,0.008,0.969,0.916,2.014,1.404
-0.071,0.014,0.971,1.282,1.587,0.977
-0.076,0.016,0.965,1.282,1.343,1.526
-0.075,0.015,0.967,1.160,1.709,1.587
-0.069,0.009,0.970,1.038,1.709,1.404
-0.067,0.011,0.968,0.671,1.526,1.160
-0.012,0.055,0.971,0.916,1.343,1.099
-0.053,0.014,0.964,0.916,1.526,1.282
-0.076,0.017,0.962,1.343,1.648,1.770
-0.077,0.015,0.968,0.916,2.075,2.014
-0.070,0.011,0.970,1.038,1.648,2.014
-0.076,0.012,0.965,1.221,1.587,1.892
-0.079,0.014,0.965,0.793,1.953,2.136
-0.074,0.010,0.974,1.099,2.075,2.136
-0.035,0.025,0.973,1.160,1.709,1.831
-0.099,-0.027,0.961,1.221,1.343,1.648
-0.131,-0.028,0.958,1.648,1.404,1.648
-0.137,-0.028,0.954,0.793,1.587,1.343
-0.072,0.036,0.969,0.793,2.197,0.977
-0.008,0.064,0.977,0.854,2.136,1.160
-0.057,0.010,0.962,1.038,2.197,1.465
-0.049,0.020,0.965,0.977,2.380,1.404
-0.126,-0.032,0.963,1.099,2.075,2.319
-0.111,0.003,0.969,1.038,1.892,2.258
-0.115,-0.008,0.969,1.282,2.136,2.380
-0.054,0.023,0.981,0.977,2.014,1.892
-0.074,0.015,0.969,0.854,1.831,1.221
-0.078,0.019,0.969,1.282,2.014,1.709
-0.078,0.018,0.965,0.916,1.282,1.892
-0.073,0.012,0.967,1.160,2.380,2.319
-0.062,0.008,0.975,1.099,2.686,2.136
-0.068,0.009,0.972,1.221,2.014,1.282
-0.070,0.010,0.966,1.465,1.526,1.160
-0.073,0.014,0.964,1.221,1.831,1.038
-0.070,0.014,0.969,1.038,2.197,1.099
-0.069,0.012,0.970,1.343,1.892,1.221
-0.072,0.016,0.969,1.038,2.136,1.343
-0.019,0.062,0.974,1.099,2.197,1.648
-0.017,0.064,0.976,0.977,2.014,2.258
-0.032,0.023,0.968,1.038,2.136,2.380
-0.109,-0.038,0.961,0.916,2.014,2.075
-0.123,-0.015,0.966,0.793,1.892,1.343
-0.043,0.051,0.974,1.160,1.953,1.831
-0.044,0.046,0.981,0.732,2.075,2.014
-0.012,0.048,0.973,1.282,1.648,1.221
-0.081,-0.014,0.959,1.465,1.587,1.404
-0.082,-0.011,0.958,1.465,1.892,1.709
-0.070,0.009,0.967,0.732,2.014,0.793
-0.069,0.012,0.968,0.916,1.770,0.732
-0.070,0.013,0.969,0.793,1.770,0.793

-0.074,0.015,0.968,1.099,1.831,1.038
-0.068,0.011,0.974,1.160,1.831,1.587
-0.068,0.010,0.971,1.282,1.648,1.404
-0.069,0.010,0.963,1.404,1.587,1.160
-0.070,0.013,0.962,1.465,2.014,1.160
-0.068,0.014,0.969,0.854,2.441,1.404
-0.038,0.045,0.972,0.916,2.014,1.404
-0.014,0.044,0.966,1.282,1.831,0.916
-0.087,-0.014,0.964,0.977,2.441,1.526
-0.134,-0.026,0.964,1.221,1.892,1.587
-0.082,-0.004,0.965,0.916,2.136,1.648
-0.067,0.008,0.972,0.854,2.014,1.465
-0.068,0.011,0.969,1.160,1.770,1.160
-0.072,0.013,0.967,0.793,1.221,1.343
-0.073,0.012,0.962,1.587,1.587,1.404
-0.068,0.010,0.967,1.404,2.014,1.404
-0.066,0.008,0.974,0.916,2.014,1.404
-0.071,0.012,0.971,1.343,1.770,1.282
-0.073,0.015,0.970,0.671,2.136,1.465
-0.071,0.016,0.969,1.221,1.953,1.709
-0.070,0.013,0.963,1.038,1.892,2.075
-0.067,0.008,0.970,0.549,1.953,1.770
-0.028,0.051,0.975,0.854,1.892,1.465
-0.030,0.032,0.971,0.793,1.770,1.404
-0.106,-0.027,0.970,1.038,1.648,1.709
-0.128,-0.000,0.965,1.465,0.916,1.343
-0.071,0.006,0.966,0.916,0.610,1.343
-0.072,0.010,0.961,1.099,0.732,1.221
-0.072,0.010,0.959,1.038,1.343,0.977
-0.072,0.011,0.962,0.854,2.197,0.854
-0.068,0.014,0.973,0.671,1.953,1.160
-0.069,0.012,0.973,0.977,1.709,1.343
-0.072,0.013,0.968,1.038,1.343,1.404
-0.072,0.014,0.967,1.160,1.831,1.587
-0.070,0.010,0.969,0.854,1.709,1.770
-0.071,0.010,0.966,0.854,1.709,1.526
-0.007,0.042,0.964,1.038,1.770,1.465
-0.071,-0.012,0.965,0.793,2.014,1.343
-0.061,-0.005,0.963,1.221,1.465,0.793
-0.123,-0.028,0.958,0.854,1.770,0.916
-0.074,0.018,0.968,1.160,1.526,1.404
-0.074,0.013,0.961,0.977,1.343,1.465
-0.068,0.011,0.973,0.793,2.380,1.282
-0.062,0.009,0.977,0.916,1.953,1.160
-0.072,0.014,0.971,0.793,0.916,0.977
-0.080,0.017,0.956,1.526,1.282,1.160
-0.071,0.009,0.967,1.099,2.197,1.831
-0.066,0.008,0.969,0.916,2.319,1.343
-0.067,0.009,0.971,0.916,1.587,1.282
-0.075,0.015,0.964,1.099,1.709,0.793
-0.064,0.001,0.963,0.854,1.953,1.770
-0.054,0.012,0.966,0.854,1.892,1.770
-0.071,0.007,0.961,1.648,2.075,1.953
-0.072,0.008,0.963,0.732,2.014,1.709
-0.076,0.011,0.968,0.488,2.075,1.709
-0.071,0.010,0.971,1.099,1.953,1.770
-0.072,0.013,0.974,0.854,1.648,1.404
-0.071,0.012,0.966,1.404,1.221,1.465
-0.073,0.010,0.960,1.160,1.587,1.526
-0.069,0.011,0.965,0.854,2.014,1.282
-0.066,0.011,0.965,0.977,2.197,1.221
-0.068,0.015,0.969,0.671,2.258,1.038
-0.075,0.016,0.968,0.916,1.892,1.221
-0.110,-0.009,0.970,0.793,2.197,1.648
-0.095,-0.021,0.959,0.916,2.258,2.075
-0.130,-0.027,0.966,1.160,2.014,2.136
-0.057,0.036,0.976,1.343,1.770,2.014
-0.003,0.046,0.970,1.221,2.136,1.282
-0.012,0.062,0.979,0.977,2.563,1.160
-0.051,0.006,0.965,1.404,1.892,1.587
-0.133,-0.036,0.955,0.977,1.648,1.160
-0.098,0.010,0.972,0.977,2.380,1.587
-0.105,0.003,0.974,1.282,2.258,1.648
-0.026,0.059,0.976,1.038,1.892,1.587
-0.025,0.039,0.967,1.221,1.953,1.709
-0.102,-0.026,0.959,1.465,1.953,1.831
-0.124,-0.025,0.968,1.038,2.075,1.648
-0.130,-0.031,0.967,1.160,2.014,1.770
-0.062,0.035,0.977,0.854,2.014,1.831
-0.006,0.062,0.978,1.038,1.953,1.709
-0.060,-0.001,0.963,0.854,1.709,1.953
-0.048,0.009,0.963,0.977,1.648,1.587
-0.129,-0.039,0.956,1.221,1.831,1.770
-0.075,0.010,0.963,0.793,2.319,1.526
-0.070,0.012,0.971,0.793,2.808,1.953
-0.064,0.011,0.976,1.221,2.014,1.648
-0.067,0.011,0.967,1.221,1.465,1.526
-0.068,0.011,0.966,0.916,1.526,1.648
-0.070,0.010,0.961,0.977,1.709,1.221
-0.068,0.013,0.968,0.671,2.197,1.221
-0.067,0.014,0.970,0.671,2.014,1.282
-0.068,0.013,0.970,0.732,1.831,1.160
-0.069,0.011,0.970,1.160,1.770,1.343
-0.068,0.011,0.969,1.404,1.892,1.282
-0.065,0.012,0.966,0.854,1.770,1.343
-0.130,-0.016,0.974,0.977,1.953,1.404
-0.053,0.039,0.975,1.343,1.831,1.587
-0.059,0.029,0.974,1.099,1.831,1.404
-0.007,0.054,0.973,0.793,1.709,0.793
-0.056,0.009,0.970,0.916,2.014,0.977

-0.131,-0.033,0.963,1.282,1.221,1.343
-0.103,-0.022,0.959,0.854,1.953,1.465
-0.102,0.001,0.972,1.038,1.953,1.892
-0.053,0.025,0.980,0.793,1.831,1.648
-0.064,0.012,0.970,0.916,1.648,1.526
-0.070,0.013,0.965,1.404,1.709,1.160
-0.067,0.015,0.972,0.610,2.136,1.526
-0.068,0.015,0.967,1.282,1.709,1.770
-0.069,0.016,0.968,0.916,1.953,1.709
-0.068,0.016,0.973,0.793,1.892,1.953
-0.066,0.014,0.971,1.160,1.770,2.014
-0.068,0.009,0.971,0.488,1.831,2.075
-0.067,0.008,0.965,0.854,1.709,1.648
-0.082,0.004,0.968,0.427,1.953,1.099
-0.094,-0.025,0.965,0.610,2.014,1.099
-0.129,-0.017,0.978,0.610,1.526,1.831
-0.050,0.045,0.983,1.221,0.977,1.770
-0.067,0.020,0.973,0.977,0.793,1.404
-0.070,0.016,0.960,0.977,1.160,1.343
-0.066,0.012,0.966,0.671,1.648,1.282
-0.066,0.012,0.970,0.549,1.587,0.793
-0.067,0.014,0.968,1.160,1.282,1.160
-0.071,0.016,0.964,0.671,1.587,1.221
-0.072,0.016,0.970,0.916,1.770,1.526
-0.068,0.014,0.973,1.221,1.587,2.075
-0.068,0.013,0.969,0.977,1.221,1.770
-0.072,0.011,0.965,1.160,1.282,1.465
-0.071,0.010,0.965,1.465,1.709,1.404
-0.105,-0.032,0.967,0.793,2.014,1.343
-0.121,-0.009,0.971,1.038,1.648,0.671
-0.039,0.060,0.978,1.221,1.831,1.282
-0.044,0.046,0.972,1.343,1.099,1.160
-0.069,0.015,0.970,0.977,2.014,1.709
-0.063,0.013,0.971,0.916,2.014,1.404
-0.067,0.012,0.974,1.099,1.465,1.221
-0.076,0.017,0.966,0.977,1.099,1.526
-0.077,0.014,0.964,1.160,1.770,1.526
-0.067,0.010,0.970,0.916,2.075,1.770
-0.063,0.010,0.974,1.038,1.587,1.526
-0.072,0.013,0.972,0.610,1.282,1.343
-0.078,0.016,0.966,1.038,1.404,1.404
-0.018,0.040,0.962,0.793,1.648,1.831
-0.094,-0.025,0.961,0.977,2.014,1.953
-0.077,0.004,0.963,0.916,1.831,1.343
-0.077,0.012,0.966,0.610,2.075,1.526
-0.076,0.015,0.972,0.793,2.319,1.343
-0.070,0.017,0.977,0.916,1.892,1.526
-0.070,0.012,0.968,0.977,1.099,1.648
-0.072,0.012,0.963,0.854,1.282,1.465
-0.073,0.010,0.964,0.916,1.587,1.343
-0.071,0.013,0.969,0.671,1.465,1.099
-0.071,0.011,0.963,1.038,1.648,1.038
-0.074,0.014,0.963,0.793,1.953,0.854
-0.072,0.018,0.967,0.610,2.197,1.160
-0.040,0.033,0.968,1.160,2.075,1.343
-0.082,-0.013,0.959,0.854,1.648,1.648
-0.068,0.003,0.961,0.732,2.075,1.587
-0.067,0.010,0.966,0.977,2.014,1.404
-0.078,0.019,0.971,1.160,2.380,1.648
-0.073,0.017,0.973,0.793,1.831,2.258
-0.074,0.011,0.964,1.282,1.526,1.770
-0.068,0.010,0.970,0.977,2.441,2.014
-0.062,0.012,0.974,0.671,1.953,0.977
-0.069,0.016,0.956,-0.488,0.366,0.732
-0.087,0.029,0.967,-0.244,1.587,0.793
-0.071,0.019,0.962,3.601,2.930,2.136
-0.067,0.018,0.975,-0.427,2.258,2.747
-0.065,0.006,0.969,1.953,2.014,2.136
-0.068,0.011,0.967,0.488,2.502,1.648
-0.071,0.013,0.966,1.404,2.502,1.465
-0.073,0.013,0.967,0.854,2.869,1.648
-0.067,0.011,0.973,1.465,2.441,1.221
-0.075,0.015,0.970,1.038,1.953,1.099
-0.075,0.017,0.966,1.404,2.136,1.343
-0.066,0.014,0.973,0.977,2.380,1.587
-0.065,0.014,0.975,0.977,1.770,1.282
-0.067,0.012,0.965,1.343,1.587,1.282
-0.071,0.015,0.964,0.610,1.709,1.282
-0.071,0.017,0.968,0.916,2.014,1.160
-0.070,0.015,0.970,1.038,2.014,1.709
-0.070,0.015,0.969,1.099,1.709,1.587
-0.069,0.010,0.967,0.977,1.953,1.831
-0.067,0.010,0.972,0.732,1.953,1.282
-0.068,0.016,0.971,1.221,1.709,1.343
-0.070,0.016,0.965,1.038,1.343,1.404
-0.078,0.018,0.962,0.977,1.953,1.221
-0.070,0.016,0.970,0.916,2.380,1.770
-0.062,0.008,0.974,1.099,2.014,1.831
-0.067,0.007,0.968,1.343,2.014,1.587
-0.065,0.011,0.968,0.916,1.892,1.282
-0.074,0.013,0.965,1.282,1.953,0.793
-0.071,0.011,0.969,1.343,2.258,0.854
-0.068,0.017,0.970,1.282,2.319,0.488
-0.065,0.021,0.975,0.916,1.892,0.977
-0.067,0.018,0.976,1.343,1.526,1.465
-0.069,0.013,0.964,1.160,1.404,1.648
-0.067,0.017,0.966,0.549,2.075,1.709
-0.068,0.015,0.970,0.854,2.075,2.014
-0.073,0.018,0.961,-1.953,0.977,0.671
-0.078,0.021,0.976,3.662,3.296,2.014

-0.068,0.015,0.965,1.038,2.502,2.319
-0.064,0.011,0.973,1.709,1.526,2.441
-0.067,0.005,0.964,1.343,1.892,2.075
-0.072,0.011,0.965,0.732,2.014,1.648
-0.071,0.012,0.970,0.916,2.502,1.648
-0.068,0.013,0.974,1.465,1.953,1.160
-0.069,0.012,0.973,1.404,1.709,1.282
-0.068,0.016,0.970,1.282,1.343,1.343
-0.068,0.014,0.966,1.099,1.404,1.099
-0.068,0.016,0.966,0.671,1.709,0.977
-0.070,0.018,0.964,1.038,1.648,1.282
-0.074,0.018,0.968,0.488,2.258,1.770
-0.069,0.015,0.974,0.793,2.075,2.075
-0.068,0.012,0.974,0.732,1.709,2.075
-0.071,0.008,0.968,0.854,1.526,1.587
-0.066,0.007,0.971,0.671,1.770,1.404
-0.064,0.010,0.977,0.977,1.526,0.916
-0.069,0.016,0.971,0.916,0.549,0.610
-0.074,0.020,0.962,0.732,0.671,0.610
-0.073,0.013,0.957,0.793,1.221,0.488
-0.071,0.022,0.974,0.366,2.075,1.038
-0.069,0.018,0.969,1.160,1.099,1.465
-0.073,0.014,0.966,0.732,1.770,1.282
-0.065,0.018,0.975,0.793,2.075,1.221
-0.065,0.017,0.975,0.916,1.587,1.343
-0.075,0.017,0.968,0.854,0.977,1.587
-0.059,-0.003,0.955,0.305,0.366,1.709
-0.081,0.022,0.966,-2.625,3.174,1.038
-0.065,0.014,0.969,5.310,3.296,2.014
-0.075,0.027,0.974,-1.282,2.075,2.380
-0.075,0.017,0.967,2.136,1.892,2.441
-0.072,0.012,0.965,0.793,1.892,2.563
-0.068,0.008,0.967,1.343,2.075,2.625
-0.068,0.009,0.968,0.854,1.953,1.282
-0.073,0.015,0.971,0.549,1.648,0.732
-0.075,0.018,0.973,0.732,1.343,0.366
-0.075,0.022,0.971,0.671,1.282,0.671
-0.071,0.019,0.972,0.732,0.854,1.160
-0.069,0.016,0.966,0.793,0.793,1.099
-0.071,0.016,0.965,0.549,0.671,0.916
-0.074,0.015,0.960,0.977,0.854,0.488
-0.078,0.024,0.962,1.099,1.343,0.427
-0.079,0.026,0.964,0.916,1.160,0.854
-0.077,0.027,0.966,1.099,1.648,1.587
-0.078,0.020,0.971,0.854,1.953,2.075
-0.069,0.013,0.974,1.038,1.953,1.953
-0.067,0.011,0.969,1.099,1.648,1.831
-0.076,0.015,0.958,0.854,1.465,1.099
-0.081,0.021,0.953,1.343,2.563,0.916
-0.069,0.017,0.970,0.793,3.174,1.221
-0.071,0.021,0.982,0.732,2.808,1.221
-0.072,0.022,0.982,0.916,1.587,1.587
-0.075,0.020,0.963,1.587,0.793,1.404
-0.073,0.019,0.958,1.099,1.709,1.770
-0.069,0.018,0.959,0.732,2.380,1.648
-0.076,0.020,0.964,0.488,2.563,1.892
-0.079,0.018,0.968,0.732,3.235,2.136
-0.066,0.009,0.981,0.610,3.052,2.136
-0.060,-0.000,0.979,0.732,1.892,1.587
-0.064,0.004,0.980,0.244,1.038,-15.442
-0.072,0.022,0.972,1.038,0.305,-0.977
-0.073,0.032,0.968,1.282,0.427,-0.305
-0.074,0.038,0.961,1.343,0.427,0.549
-0.075,0.034,0.957,1.404,0.610,1.282
-0.088,0.037,0.957,0.977,1.038,2.319
-0.091,0.029,0.958,1.648,2.502,4.150
-0.083,0.018,0.970,1.465,2.563,5.127
-0.114,0.029,0.953,-12.390,-0.549,4.883
-0.048,0.006,1.012,3.723,6.226,3.418
-0.112,-0.015,1.010,8.789,4.272,-1.038
-0.048,0.059,0.983,-0.977,-1.953,1.160
-0.085,0.018,0.946,2.869,-1.282,0.000
-0.076,0.009,0.934,1.526,2.014,0.916
-0.069,0.014,0.961,1.343,2.991,0.488
-0.071,0.013,0.971,2.136,3.540,0.427
-0.074,0.022,0.976,2.258,2.808,0.366
-0.072,0.027,0.984,2.075,1.953,1.099
-0.071,0.020,0.974,2.258,1.404,1.709
-0.068,0.012,0.969,1.160,1.648,2.258
-0.064,0.004,0.962,0.732,1.892,1.831
-0.072,0.011,0.967,0.244,2.563,1.160
-0.075,0.016,0.967,0.671,1.587,1.709
-0.084,0.016,0.963,0.977,1.892,1.404
-0.074,0.015,0.976,1.099,2.625,2.258
-0.064,0.011,0.980,1.282,2.075,2.075
-0.071,0.015,0.976,1.099,0.977,1.648
-0.142,0.064,0.952,-12.573,-3.967,-0.488
-0.067,0.020,0.977,10.498,5.188,2.075
-0.050,-0.010,0.992,4.822,4.700,2.258
-0.137,-0.028,0.971,-1.221,15.320,1.831
-0.077,0.005,0.955,2.747,1.709,1.343
-0.069,0.013,0.974,0.488,2.075,1.587
-0.071,0.011,0.965,1.770,1.709,0.977
-0.098,0.031,0.909,-5.859,-1.526,-0.916
-0.087,0.040,0.994,2.502,4.272,-0.122
-0.086,0.000,0.986,2.747,3.540,3.235
-0.093,-0.009,0.984,-0.977,0.732,2.625
-0.076,0.003,0.960,3.418,0.610,2.014
-0.070,0.003,0.957,0.427,1.404,1.892
-0.069,0.010,0.952,1.953,1.648,1.038

-0.074,0.012,0.960,1.038,2.686,0.366
-0.073,0.020,0.978,1.038,2.502,0.488
-0.085,0.038,0.982,-3.601,1.404,-0.122
-0.070,0.020,0.984,4.456,2.686,1.160
-0.058,0.045,0.976,1.282,1.526,2.808
-0.020,0.052,0.968,1.038,0.916,2.380
-0.069,0.008,0.959,1.526,1.526,2.258
-0.062,0.009,0.966,0.916,1.831,1.709
-0.068,0.009,0.968,1.099,1.892,0.977
-0.072,0.017,0.973,0.977,1.831,0.916
-0.093,0.024,0.935,-5.920,1.709,0.061
-0.075,0.022,0.986,5.066,2.930,1.587
-0.117,-0.007,0.995,2.747,2.991,2.991
-0.050,0.053,0.980,-0.183,-0.427,2.014
-0.072,0.006,0.965,2.136,0.732,2.075
-0.063,0.001,0.967,0.793,1.099,1.709
-0.062,0.009,0.970,1.282,0.793,0.549
-0.066,0.005,0.901,0.244,0.000,0.061
-0.085,0.033,0.963,-3.784,3.723,0.244
-0.066,0.014,0.967,3.174,4.700,1.404
-0.053,0.013,0.992,-0.305,2.625,1.587
-0.142,-0.021,0.974,2.136,1.221,1.038
-0.113,0.023,0.973,0.977,1.099,2.075
-0.022,0.066,0.971,1.404,1.038,2.930
-0.018,0.054,0.970,1.221,1.892,2.441
-0.017,0.030,0.963,0.366,1.953,1.587
-0.106,-0.027,0.956,0.549,2.441,0.732
-0.135,-0.013,0.976,0.183,2.319,1.221
-0.139,-0.014,0.974,0.977,1.587,1.709
-0.066,0.044,0.978,1.038,1.038,1.831
-0.010,0.062,0.967,0.977,1.038,1.831
-0.003,0.061,0.971,0.549,1.587,1.465
-0.048,0.010,0.965,0.793,1.648,0.977
-0.133,-0.031,0.958,0.793,1.709,0.732
-0.129,-0.025,0.961,0.488,2.075,0.977
-0.118,0.007,0.975,0.793,1.770,1.282
-0.030,0.063,0.981,0.793,1.221,1.404
-0.039,0.058,0.971,1.343,1.099,1.343
-0.010,0.052,0.967,0.793,1.587,1.221
-0.091,-0.011,0.959,1.038,1.953,1.526
-0.074,-0.006,0.964,0.977,2.136,1.404
-0.144,-0.023,0.963,0.977,1.892,1.343
-0.085,0.040,0.976,1.160,2.014,1.648
-0.010,0.069,0.977,0.916,1.221,1.831
-0.014,0.067,0.973,1.038,2.075,1.587
-0.032,0.028,0.969,0.488,2.502,1.282
-0.122,-0.024,0.969,0.366,1.770,1.465
-0.125,0.004,0.966,1.465,0.977,1.892
-0.038,0.062,0.971,1.282,1.587,1.648
-0.040,0.054,0.976,1.038,1.831,1.648
-0.005,0.056,0.972,0.671,1.709,1.282
-0.088,-0.004,0.958,1.160,1.648,1.404
-0.144,-0.018,0.959,1.160,2.075,1.831
-0.144,-0.024,0.959,0.671,1.953,2.197
-0.082,0.033,0.973,1.038,2.197,2.319
-0.007,0.068,0.974,0.977,1.892,1.831
-0.047,0.023,0.962,0.732,2.075,1.343
-0.134,-0.026,0.964,0.854,2.625,1.709
-0.122,-0.022,0.969,1.160,2.319,1.831
-0.125,0.000,0.968,1.465,1.526,2.014
-0.038,0.062,0.972,1.099,1.770,1.831
-0.018,0.057,0.971,1.953,2.258,1.221
-0.006,0.063,0.980,2.747,2.563,1.770
-0.076,-0.010,0.958,0.610,1.282,1.892
-0.135,-0.028,0.956,0.793,1.648,1.282
-0.072,0.012,0.959,1.160,2.319,1.404
-0.070,0.019,0.974,0.854,2.747,1.648
-0.070,0.019,0.973,1.282,2.136,1.709
-0.068,0.021,0.977,1.099,1.709,1.770
-0.070,0.017,0.967,1.282,1.160,1.282
-0.079,0.022,0.965,1.160,1.465,1.465
-0.078,0.022,0.960,1.465,1.770,1.831
-0.071,0.017,0.965,1.038,2.563,2.075
-0.062,0.016,0.983,0.793,2.563,2.319
-0.066,0.017,0.975,1.526,1.587,1.770
-0.078,0.021,0.967,1.587,1.282,1.709
-0.063,-0.001,0.943,1.770,1.831,2.075
-0.077,0.024,0.999,-2.563,4.089,1.709
-0.059,0.001,0.968,3.662,3.174,1.587
-0.129,-0.024,0.987,1.160,1.709,0.488
-0.087,0.028,0.973,2.502,1.526,0.061
-0.013,0.074,0.979,1.099,1.770,0.488
-0.013,0.070,0.973,1.587,1.953,1.770
-0.026,0.028,0.965,1.160,1.892,1.831
-0.118,-0.027,0.955,1.099,1.953,1.343
-0.110,-0.026,0.962,0.916,2.747,1.587
-0.128,-0.011,0.976,1.343,2.686,2.014
-0.043,0.049,0.986,0.793,1.953,1.831
-0.009,0.054,0.975,1.099,1.831,1.953
-0.007,0.058,0.973,0.916,1.404,1.770
-0.072,-0.001,0.962,0.671,1.404,1.282
-0.137,-0.027,0.956,0.916,1.526,1.343
-0.130,-0.031,0.958,1.038,2.014,1.465
-0.094,0.015,0.966,1.160,2.380,1.282
-0.019,0.072,0.980,0.183,2.686,0.916
-0.033,0.037,0.972,1.343,2.380,1.404
-0.116,-0.020,0.961,1.282,2.319,1.709
-0.101,-0.021,0.969,1.160,2.075,1.709
-0.121,-0.021,0.968,1.404,1.404,1.709
-0.046,0.045,0.973,1.160,1.831,1.099

-0.007,0.061,0.979,0.977,2.075,0.977
-0.013,0.067,0.974,2.686,1.221,1.038
-0.068,0.005,0.960,1.831,1.770,1.770
-0.128,-0.033,0.961,0.671,1.587,2.258
-0.064,0.013,0.966,1.770,2.014,1.465
-0.071,0.015,0.961,1.770,2.441,1.404
-0.068,0.017,0.970,1.587,2.625,1.465
-0.069,0.020,0.974,1.282,2.502,1.587
-0.074,0.022,0.970,1.404,2.686,2.319
-0.075,0.018,0.970,1.160,2.808,2.686
-0.068,0.017,0.979,0.977,3.052,3.113
-0.065,0.010,0.983,2.380,2.258,3.479
-0.058,-0.001,0.973,1.099,1.770,2.930
-0.024,-0.029,0.969,0.427,0.854,2.075
-0.082,0.015,0.969,-2.869,0.977,-0.793
-0.079,0.019,0.966,1.831,2.197,1.282
-0.065,0.032,0.983,0.183,1.892,2.380
-0.079,0.036,0.985,1.526,0.732,1.465
-0.009,0.065,0.967,1.770,0.488,0.916
-0.048,0.014,0.950,0.671,1.282,1.343
-0.033,0.020,0.963,1.038,2.197,1.770
-0.117,-0.032,0.958,2.197,2.502,2.319
-0.113,-0.006,0.968,0.122,2.380,2.319
-0.031,-0.008,0.963,0.854,2.136,1.221
-0.037,0.057,0.983,0.244,2.075,1.465
-0.008,0.054,0.977,1.038,1.953,1.221
-0.085,-0.007,0.968,1.160,1.831,1.648
-0.071,-0.007,0.969,1.526,1.465,1.648
-0.128,-0.039,0.966,1.038,0.671,1.648
-0.083,0.024,0.975,1.221,0.671,0.916
-0.004,0.064,0.972,1.404,0.366,0.916
-0.015,0.064,0.964,1.282,1.160,0.366
-0.035,0.031,0.968,0.977,2.625,0.610
-0.122,-0.014,0.976,2.563,2.686,1.343
-0.110,-0.018,0.970,1.465,0.854,1.343
-0.073,0.008,0.964,0.244,0.854,1.282
-0.064,-0.000,0.962,1.160,1.709,0.977
-0.062,0.005,0.977,-0.671,1.892,-0.366
-0.065,0.008,0.979,0.305,1.221,-1.038
-0.076,0.022,0.975,0.488,0.488,-1.038
-0.079,0.027,0.974,1.099,0.061,-0.305
-0.081,0.029,0.962,1.831,-0.183,0.732
-0.078,0.023,0.957,1.953,0.549,1.831
-0.096,0.039,0.974,-14.954,3.967,2.686
-0.059,0.027,0.982,2.991,4.272,3.235
-0.045,0.008,1.003,2.136,3.540,2.380
-0.020,0.068,0.999,3.418,-0.610,0.977
-0.026,0.064,0.943,3.540,1.099,1.099
-0.040,0.014,0.923,1.709,3.235,1.526
-0.100,-0.038,0.932,0.244,5.554,1.465
-0.098,0.005,0.957,-5.981,6.287,0.305
-0.075,0.036,0.975,-4.456,6.531,0.427
-0.068,0.027,0.981,-3.052,6.104,2.014
-0.066,0.020,0.984,-2.380,5.615,2.258
-0.056,0.007,0.985,1.465,4.150,0.610
-0.056,-0.000,0.977,1.465,2.808,-0.916
-0.072,0.014,0.978,1.709,2.563,-2.319
-0.068,0.025,0.981,2.686,1.709,-2.502
-0.057,0.031,0.986,1.953,0.916,-2.991
-0.044,0.039,0.998,2.441,-0.610,-2.258
-0.045,0.031,0.989,2.563,-2.380,-2.869
-0.073,0.044,0.961,2.075,-2.747,-2.136
-0.105,0.009,0.925,1.831,-3.052,-2.136
-0.077,0.035,0.973,2.869,2.258,1.526
0.004,0.071,0.970,5.798,3.601,5.005
-0.013,0.052,0.955,2.075,1.160,3.662
-0.083,0.015,0.929,2.747,1.831,4.089
-0.073,0.017,0.949,1.038,4.089,4.089
-0.056,0.012,0.978,0.183,5.005,3.052
-0.052,0.012,0.990,0.366,2.991,1.831
-0.064,0.011,0.980,0.916,1.526,0.977
-0.070,0.013,0.975,0.916,0.854,0.671
-0.065,0.022,0.976,1.892,0.977,0.793
-0.062,0.025,0.972,2.075,0.488,0.732
-0.038,0.033,0.898,2.319,0.305,0.916
-0.072,0.079,0.966,-5.981,4.700,0.732
-0.031,0.017,0.979,5.798,4.639,4.272
-0.113,-0.023,0.983,-1.160,1.709,3.113
-0.072,0.006,0.964,2.502,1.221,1.892
